File: adquisiciones/uvvis naftaleno/PS+NF20.Sample.asc
PE UV       SUBTECH     SPECTRUM    ASCII       PEDS        4.00
   -1
PS+NF20.Sample.asc
24/04/30
10:34:33.00
24/04/30
10:34:33.00
Analyst

200
1
Lambda 25
501S09011401
PerkinElmer UV WinLab 6.0.2.0723 / Lambda25 1.27

480
2
1
0
0
Both on
1
1
1
None
0
0
0
0

0
0
0
0
0

0

0
326
0

0

0
0
0

0

0

0
0
0
0
0

0
0
#HDR
-1
-1
#GR
nm
A
1.0
0.0
700
-1.000000
501
8
4.126918
0.965198
#DATA
700	0.965198
699	0.965893
698	0.966534
697	0.967363
696	0.967967
695	0.968698
694	0.969420
693	0.970042
692	0.970784
691	0.971633
690	0.972384
689	0.973151
688	0.973872
687	0.974649
686	0.975462
685	0.976208
684	0.977169
683	0.977787
682	0.978634
681	0.979311
680	0.980191
679	0.981011
678	0.981887
677	0.982619
676	0.983273
675	0.984028
674	0.984848
673	0.985694
672	0.986265
671	0.987157
670	0.987786
669	0.988491
668	0.989184
667	0.989919
666	0.990755
665	0.991482
664	0.992345
663	0.992914
662	0.993708
661	0.994395
660	0.995310
659	0.995990
658	0.996951
657	0.997717
656	0.998452
655	0.999379
654	1.000028
653	1.000836
652	1.001796
651	1.002397
650	1.003314
649	1.004161
648	1.005070
647	1.005881
646	1.006682
645	1.007613
644	1.008409
643	1.009114
642	1.010119
641	1.010950
640	1.011719
639	1.012622
638	1.013527
637	1.014307
636	1.015217
635	1.016067
634	1.016925
633	1.017957
632	1.018753
631	1.019663
630	1.020561
629	1.021529
628	1.022407
627	1.023305
626	1.024328
625	1.025236
624	1.026266
623	1.027155
622	1.028153
621	1.029180
620	1.030035
619	1.030995
618	1.031994
617	1.033037
616	1.034110
615	1.035020
614	1.036057
613	1.037023
612	1.038172
611	1.038989
610	1.040175
609	1.041039
608	1.042148
607	1.043196
606	1.044174
605	1.045163
604	1.046126
603	1.047164
602	1.048204
601	1.049188
600	1.050116
599	1.051178
598	1.052089
597	1.053031
596	1.054055
595	1.054973
594	1.055748
593	1.056802
592	1.057533
591	1.058369
590	1.059303
589	1.060090
588	1.060822
587	1.061618
586	1.062401
585	1.063209
584	1.064005
583	1.064998
582	1.065884
581	1.066749
580	1.067976
579	1.069000
578	1.070185
577	1.071370
576	1.072543
575	1.073771
574	1.075130
573	1.076154
572	1.077541
571	1.078806
570	1.080248
569	1.081600
568	1.082872
567	1.084366
566	1.085617
565	1.087088
564	1.088455
563	1.089740
562	1.091131
561	1.092579
560	1.093869
559	1.095189
558	1.097907
557	1.099896
556	1.101287
555	1.102703
554	1.104097
553	1.105592
552	1.106993
551	1.108363
550	1.109921
549	1.111283
548	1.112977
547	1.114273
546	1.115764
545	1.117463
544	1.118956
543	1.120680
542	1.122099
541	1.123724
540	1.125176
539	1.126782
538	1.128381
537	1.129833
536	1.131431
535	1.132977
534	1.134495
533	1.136151
532	1.137772
531	1.139313
530	1.141047
529	1.142707
528	1.144426
527	1.145864
526	1.147763
525	1.149228
524	1.151064
523	1.152599
522	1.154147
521	1.155958
520	1.157580
519	1.159400
518	1.161110
517	1.162911
516	1.164607
515	1.166152
514	1.168072
513	1.169752
512	1.171508
511	1.173328
510	1.174968
509	1.176827
508	1.178628
507	1.180330
506	1.182173
505	1.183939
504	1.185674
503	1.187717
502	1.189446
501	1.191258
500	1.193058
499	1.195097
498	1.197054
497	1.198858
496	1.200687
495	1.202730
494	1.204542
493	1.206657
492	1.208716
491	1.210550
490	1.212532
489	1.214744
488	1.216703
487	1.218861
486	1.221026
485	1.223092
484	1.225185
483	1.227416
482	1.229531
481	1.231826
480	1.233790
479	1.235987
478	1.238143
477	1.240481
476	1.242578
475	1.244688
474	1.247096
473	1.249228
472	1.251636
471	1.253824
470	1.256087
469	1.258426
468	1.260839
467	1.263050
466	1.265529
465	1.268118
464	1.270330
463	1.272878
462	1.275048
461	1.277732
460	1.280224
459	1.282732
458	1.285170
457	1.287828
456	1.290290
455	1.292776
454	1.295564
453	1.298109
452	1.300857
451	1.303520
450	1.306278
449	1.309081
448	1.311748
447	1.314421
446	1.317531
445	1.320038
444	1.323228
443	1.325606
442	1.328646
441	1.331898
440	1.334329
439	1.337174
438	1.340178
437	1.343249
436	1.345846
435	1.348592
434	1.351704
433	1.354461
432	1.358218
431	1.360763
430	1.364426
429	1.367422
428	1.370464
427	1.373294
426	1.376374
425	1.380471
424	1.383476
423	1.387042
422	1.390758
421	1.393421
420	1.396970
419	1.400227
418	1.403757
417	1.407487
416	1.410687
415	1.414145
414	1.417934
413	1.421601
412	1.424975
411	1.428569
410	1.432180
409	1.436197
408	1.439747
407	1.443738
406	1.447576
405	1.451180
404	1.455129
403	1.458772
402	1.462879
401	1.466779
400	1.470736
399	1.475091
398	1.478964
397	1.483304
396	1.487393
395	1.491383
394	1.495316
393	1.500160
392	1.504365
391	1.508604
390	1.512840
389	1.517195
388	1.521968
387	1.525763
386	1.530493
385	1.535167
384	1.543422
383	1.547122
382	1.558474
381	1.557314
380	1.558297
379	1.552471
378	1.563676
377	1.564636
376	1.573750
375	1.579337
374	1.580708
373	1.591948
372	1.597407
371	1.591847
370	1.608610
369	1.607053
368	1.623258
367	1.619223
366	1.636985
365	1.630837
364	1.648687
363	1.641749
362	1.651692
361	1.659474
360	1.667643
359	1.674133
358	1.687799
357	1.687990
356	1.700132
355	1.685231
354	1.704813
353	1.707860
352	1.731308
351	1.728753
350	1.743424
349	1.740501
348	1.752501
347	1.733938
346	1.760131
345	1.776581
344	1.773629
343	1.777274
342	1.794323
341	1.802094
340	1.811148
339	1.839885
338	1.852533
337	1.859035
336	1.874735
335	1.893887
334	1.912950
333	1.907007
332	1.954013
331	1.965721
330	1.982152
329	2.038839
328	2.145708
327	2.266276
326	2.416498
325	2.687722
324	3.009880
323	3.201376
322	3.423296
321	3.423229
320	3.551715
319	3.522776
318	3.457995
317	3.551875
316	3.495805
315	3.423385
314	3.423569
313	3.567463
312	3.470709
311	3.412717
310	3.496397
309	3.552463
308	3.523604
307	3.446894
306	3.509992
305	3.523927
304	3.523851
303	3.552823
302	3.524044
301	3.471216
300	3.552865
299	3.371865
298	3.496699
297	3.496728
296	3.423951
295	3.509698
294	3.496225
293	3.470436
292	3.509144
291	3.390813
290	3.495464
289	3.482285
288	3.482255
287	3.457251
286	3.469334
285	3.457057
284	3.469287
283	3.400509
282	3.369680
281	3.536049
280	3.565869
279	3.481535
278	3.444952
277	3.494568
276	3.456910
275	3.379874
274	3.469258
273	3.433681
272	3.433782
271	3.482260
270	3.495174
269	3.508648
268	3.482512
267	3.422977
266	3.522928
265	3.567266
264	3.509312
263	3.509421
262	3.552148
261	3.509488
260	3.567526
259	3.470620
258	3.496221
257	3.616795
256	3.583442
255	3.634654
254	3.599900
253	3.599879
252	3.567564
251	3.537580
250	3.616707
249	3.652889
248	3.653049
247	3.672417
246	3.653246
245	3.672702
244	3.653548
243	3.600441
242	3.617642
241	3.673289
240	3.737176
239	3.693873
238	3.694012
237	3.654783
236	3.694396
235	3.636672
234	3.694756
233	3.761990
232	3.738797
231	3.716859
230	3.763108
229	3.740184
228	3.764326
227	3.698217
226	3.765991
225	3.767032
224	3.819108
223	3.793445
222	3.793983
221	3.794357
220	3.820694
219	3.702673
218	3.848809
217	3.820862
216	3.794660
215	3.821055
214	3.911432
213	3.946542
212	4.071878
211	3.880066
210	3.912684
209	3.881071
208	3.881540
207	3.913806
206	3.882203
205	3.853252
204	4.126918
203	3.854387
202	3.885418
201	3.856866
200	3.887368