File: adquisiciones/uvvis naftaleno/PS1.Sample.asc
PE UV       SUBTECH     SPECTRUM    ASCII       PEDS        4.00
   -1
PS1.Sample.asc
24/04/30
10:22:34.00
24/04/30
10:22:34.00
Analyst

200
1
Lambda 25
501S09011401
PerkinElmer UV WinLab 6.0.2.0723 / Lambda25 1.27

480
2
1
0
0
Both on
1
1
1
None
0
0
0
0

0
0
0
0
0

0

0
326
0

0

0
0
0

0

0

0
0
0
0
0

0
0
#HDR
-1
-1
#GR
nm
A
1.0
0.0
700
-1.000000
501
8
4.255345
0.243754
#DATA
700,0.243754
699,0.244111
698,0.244429
697,0.244903
696,0.245231
695,0.245596
694,0.245970
693,0.246365
692,0.246748
691,0.247155
690,0.247494
689,0.247869
688,0.248262
687,0.248649
686,0.249072
685,0.249500
684,0.249846
683,0.250363
682,0.250828
681,0.251146
680,0.251585
679,0.251997
678,0.252480
677,0.252856
676,0.253272
675,0.253648
674,0.254056
673,0.254492
672,0.254927
671,0.255236
670,0.255624
669,0.256073
668,0.256364
667,0.256831
666,0.257226
665,0.257746
664,0.258047
663,0.258393
662,0.258922
661,0.259046
660,0.259528
659,0.259986
658,0.260453
657,0.260912
656,0.261193
655,0.261729
654,0.262151
653,0.262644
652,0.263124
651,0.263586
650,0.264052
649,0.264522
648,0.264951
647,0.265544
646,0.265852
645,0.266467
644,0.266847
643,0.267334
642,0.267942
641,0.268287
640,0.268938
639,0.269393
638,0.269768
637,0.270312
636,0.270904
635,0.271334
634,0.271823
633,0.272335
632,0.272846
631,0.273300
630,0.273843
629,0.274333
628,0.274951
627,0.275427
626,0.275928
625,0.276430
624,0.277057
623,0.277559
622,0.278048
621,0.278688
620,0.279189
619,0.279728
618,0.280266
617,0.280888
616,0.281480
615,0.282029
614,0.282559
613,0.283133
612,0.283752
611,0.284252
610,0.284838
609,0.285430
608,0.286067
607,0.286646
606,0.287227
605,0.287820
604,0.288423
603,0.289028
602,0.289661
601,0.290221
600,0.290891
599,0.291374
598,0.292057
597,0.292662
596,0.293276
595,0.293840
594,0.294454
593,0.295169
592,0.295715
591,0.296354
590,0.297022
589,0.297633
588,0.298293
587,0.299004
586,0.299590
585,0.300113
584,0.300949
583,0.301458
582,0.302159
581,0.302815
580,0.303456
579,0.304169
578,0.305004
577,0.305808
576,0.306352
575,0.307136
574,0.307867
573,0.308494
572,0.309294
571,0.310042
570,0.310781
569,0.311436
568,0.312196
567,0.312921
566,0.313712
565,0.314422
564,0.315256
563,0.315956
562,0.316699
561,0.317599
560,0.318244
559,0.319112
558,0.320020
557,0.321035
556,0.321946
555,0.322638
554,0.323494
553,0.324319
552,0.325133
551,0.325966
550,0.326759
549,0.327613
548,0.328472
547,0.329318
546,0.330109
545,0.331059
544,0.331984
543,0.332826
542,0.333786
541,0.334671
540,0.335550
539,0.336436
538,0.337347
537,0.338233
536,0.339144
535,0.340053
534,0.340968
533,0.341970
532,0.342832
531,0.343769
530,0.344778
529,0.345739
528,0.346736
527,0.347666
526,0.348655
525,0.349634
524,0.350644
523,0.351571
522,0.352609
521,0.353637
520,0.354574
519,0.355651
518,0.356784
517,0.357907
516,0.358859
515,0.359927
514,0.361056
513,0.362091
512,0.363217
511,0.364313
510,0.365436
509,0.366530
508,0.367645
507,0.368747
506,0.370001
505,0.371116
504,0.372268
503,0.373392
502,0.374667
501,0.375907
500,0.377053
499,0.378301
498,0.379521
497,0.380650
496,0.382046
495,0.383249
494,0.384467
493,0.385761
492,0.386949
491,0.388289
490,0.389662
489,0.391008
488,0.392239
487,0.393613
486,0.394930
485,0.396233
484,0.397558
483,0.399053
482,0.400217
481,0.401829
480,0.403028
479,0.404475
478,0.405906
477,0.407270
476,0.408801
475,0.410311
474,0.411691
473,0.413200
472,0.414708
471,0.416195
470,0.417731
469,0.419379
468,0.420944
467,0.422512
466,0.424029
465,0.425581
464,0.427225
463,0.428936
462,0.430503
461,0.432144
460,0.433807
459,0.435421
458,0.437090
457,0.438914
456,0.440535
455,0.442273
454,0.444004
453,0.445773
452,0.447511
451,0.449401
450,0.451223
449,0.453112
448,0.454855
447,0.456714
446,0.458651
445,0.460522
444,0.462424
443,0.464182
442,0.466280
441,0.468268
440,0.470262
439,0.472223
438,0.474255
437,0.476359
436,0.478333
435,0.480550
434,0.482600
433,0.484682
432,0.486957
431,0.488952
430,0.491176
429,0.493363
428,0.495671
427,0.497870
426,0.500225
425,0.502524
424,0.504866
423,0.507157
422,0.509408
421,0.510932
420,0.513819
419,0.516156
418,0.518477
417,0.521163
416,0.523651
415,0.526240
414,0.528760
413,0.531445
412,0.533907
411,0.536478
410,0.539167
409,0.542019
408,0.544675
407,0.547484
406,0.550179
405,0.552904
404,0.555692
403,0.558516
402,0.561476
401,0.564333
400,0.567229
399,0.570397
398,0.573394
397,0.576510
396,0.579754
395,0.582853
394,0.586077
393,0.589306
392,0.592568
391,0.595699
390,0.599056
389,0.602583
388,0.606084
387,0.609372
386,0.612978
385,0.616511
384,0.620759
383,0.625089
382,0.628146
381,0.630630
380,0.636823
379,0.638548
378,0.642656
377,0.645797
376,0.650003
375,0.653682
374,0.659272
373,0.662356
372,0.667278
371,0.670754
370,0.676007
369,0.681035
368,0.685129
367,0.690245
366,0.694925
365,0.699812
364,0.704734
363,0.707438
362,0.714222
361,0.718850
360,0.724242
359,0.730001
358,0.734101
357,0.739756
356,0.744027
355,0.748379
354,0.754077
353,0.760835
352,0.765417
351,0.772517
350,0.777950
349,0.782600
348,0.789014
347,0.794238
346,0.801761
345,0.807798
344,0.813112
343,0.819117
342,0.825727
341,0.832622
340,0.838778
339,0.844158
338,0.854621
337,0.861092
336,0.868432
335,0.875171
334,0.882802
333,0.893153
332,0.897249
331,0.903014
330,0.914228
329,0.923184
328,0.928674
327,0.932233
326,0.939449
325,0.947509
324,0.955396
323,0.963485
322,0.972140
321,0.980749
320,0.989791
319,0.998946
318,1.008560
317,1.018024
316,1.027413
315,1.036543
314,1.046665
313,1.056440
312,1.066021
311,1.076407
310,1.086771
309,1.097723
308,1.109655
307,1.121667
306,1.134385
305,1.148234
304,1.163404
303,1.179785
302,1.197774
301,1.217394
300,1.241696
299,1.268839
298,1.303237
297,1.343052
296,1.388162
295,1.435522
294,1.484283
293,1.535937
292,1.588759
291,1.640231
290,1.695706
289,1.752739
288,1.812064
287,1.872104
286,1.943364
285,2.026588
284,2.129127
283,2.234418
282,2.374643
281,2.555288
280,2.806201
279,3.174165
278,3.521792
277,3.670659
276,3.690993
275,3.581979
274,3.691107
273,3.691246
272,3.837475
271,3.734985
270,3.734935
269,3.735044
268,3.783542
267,3.783593
266,3.838198
265,3.935243
264,3.900518
263,3.900628
262,3.900602
261,3.973245
260,4.060442
259,3.810569
258,3.935553
257,3.935553
256,3.900863
255,3.973472
254,4.111783
253,4.060610
252,4.111632
251,3.935520
250,4.060404
249,4.060375
248,4.236625
247,4.169742
246,4.169876
245,4.236974
244,4.237125
243,3.936233
242,4.112492
241,4.237560
240,4.061687
239,4.237941
238,4.171133
237,4.062269
236,4.171518
235,3.975490
234,4.171877
233,4.114173
232,4.172453
231,4.172791
230,4.173282
229,4.173840
228,4.174500
227,3.979043
226,4.176166
225,4.244153
224,4.023228
223,4.245743
222,4.246281
221,4.070563
220,4.121724
219,3.983499
218,4.070658
217,4.179884
216,4.246958
215,4.122085
214,4.122286
213,4.071481
212,4.026120
211,3.912251
210,4.123537
209,4.182101
208,4.124578
207,4.124659
206,4.125241
205,4.075101
204,4.184910
203,3.884350
202,4.128456
201,4.129867
200,4.255345