File: adquisiciones/uvvis naftaleno/PS2.Sample.asc
PE UV       SUBTECH     SPECTRUM    ASCII       PEDS        4.00
   -1
PS2.Sample.asc
24/04/30
10:24:19.00
24/04/30
10:24:19.00
Analyst

200
1
Lambda 25
501S09011401
PerkinElmer UV WinLab 6.0.2.0723 / Lambda25 1.27

480
2
1
0
0
Both on
1
1
1
None
0
0
0
0

0
0
0
0
0

0

0
326
0

0

0
0
0

0

0

0
0
0
0
0

0
0
#HDR
-1
-1
#GR
nm
A
1.0
0.0
700
-1.000000
501
8
10
1.835726
#DATA
700	1.835726
699	1.836395
698	1.837045
697	1.837811
696	1.838191
695	1.839363
694	1.839824
693	1.840801
692	1.841516
691	1.841955
690	1.842915
689	1.843893
688	1.844862
687	1.845539
686	1.846012
685	1.847283
684	1.848234
683	1.848532
682	1.849667
681	1.850393
680	1.851731
679	1.852169
678	1.852943
677	1.854493
676	1.854915
675	1.855079
674	1.856080
673	1.857183
672	1.857711
671	1.858462
670	1.859179
669	1.859687
668	1.860145
667	1.860356
666	1.861699
665	1.862266
664	1.862735
663	1.863509
662	1.864062
661	1.864182
660	1.865645
659	1.865912
658	1.867015
657	1.868122
656	1.868283
655	1.869434
654	1.870171
653	1.871068
652	1.871585
651	1.871804
650	1.872905
649	1.874057
648	1.874895
647	1.875715
646	1.876486
645	1.877644
644	1.878191
643	1.878726
642	1.879919
641	1.880718
640	1.881619
639	1.882753
638	1.883283
637	1.883850
636	1.885073
635	1.885587
634	1.886495
633	1.887718
632	1.888299
631	1.889177
630	1.890084
629	1.890977
628	1.891865
627	1.892194
626	1.893677
625	1.894905
624	1.895549
623	1.895821
622	1.897326
621	1.897691
620	1.899182
619	1.899792
618	1.900987
617	1.902269
616	1.902903
615	1.904458
614	1.905375
613	1.905987
612	1.907291
611	1.907196
610	1.908815
609	1.909730
608	1.911038
607	1.911682
606	1.912992
605	1.913619
604	1.914545
603	1.915131
602	1.916089
601	1.916989
600	1.917923
599	1.918812
598	1.919683
597	1.920540
596	1.921677
595	1.922131
594	1.923153
593	1.924184
592	1.925118
591	1.926406
590	1.926979
589	1.927881
588	1.929022
587	1.929114
586	1.930900
585	1.932282
584	1.933106
583	1.934539
582	1.935360
581	1.936462
580	1.937691
579	1.937899
578	1.939885
577	1.940957
576	1.941919
575	1.943389
574	1.944226
573	1.945017
572	1.946285
571	1.946856
570	1.948587
569	1.949553
568	1.950899
567	1.951856
566	1.953280
565	1.954308
564	1.955429
563	1.955728
562	1.957610
561	1.958809
560	1.960220
559	1.961237
558	1.963311
557	1.964616
556	1.965903
555	1.966682
554	1.968296
553	1.969580
552	1.970769
551	1.972030
550	1.973653
549	1.974191
548	1.975509
547	1.976413
546	1.977683
545	1.979388
544	1.980658
543	1.981890
542	1.983137
541	1.983927
540	1.985879
539	1.986305
538	1.988297
537	1.989856
536	1.991453
535	1.991856
534	1.993824
533	1.995477
532	1.995830
531	1.997474
530	1.999899
529	2.000683
528	2.002745
527	2.003936
526	2.005598
525	2.006458
524	2.008109
523	2.008917
522	2.010982
521	2.012663
520	2.014330
519	2.015235
518	2.016928
517	2.018228
516	2.020755
515	2.021181
514	2.022474
513	2.024560
512	2.026293
511	2.028030
510	2.028901
509	2.030611
508	2.031949
507	2.033684
506	2.035499
505	2.036794
504	2.038560
503	2.039877
502	2.042144
501	2.042580
500	2.044792
499	2.045701
498	2.048460
497	2.049706
496	2.051559
495	2.053956
494	2.054807
493	2.056154
492	2.058434
491	2.060288
490	2.061222
489	2.063116
488	2.065360
487	2.067605
486	2.069040
485	2.071326
484	2.073091
483	2.073613
482	2.076773
481	2.078661
480	2.080845
479	2.082208
478	2.085006
477	2.086217
476	2.088103
475	2.089428
474	2.092122
473	2.094906
472	2.096151
471	2.099509
470	2.100301
469	2.102117
468	2.104968
467	2.105305
466	2.109194
465	2.110487
464	2.113521
463	2.114909
462	2.117908
461	2.119880
460	2.122354
459	2.122189
458	2.125848
457	2.129031
456	2.131071
455	2.133131
454	2.135244
453	2.137917
452	2.140548
451	2.141541
450	2.144250
449	2.145765
448	2.150038
447	2.151491
446	2.154030
445	2.157928
444	2.161057
443	2.159434
442	2.162645
441	2.166591
440	2.170536
439	2.172516
438	2.174021
437	2.177545
436	2.179077
435	2.180114
434	2.184307
433	2.187897
432	2.189146
431	2.193464
430	2.195427
429	2.197946
428	2.200603
427	2.201142
426	2.205827
425	2.211134
424	2.213844
423	2.217291
422	2.219393
421	2.222156
420	2.224268
419	2.226386
418	2.229863
417	2.232825
416	2.236396
415	2.240014
414	2.243013
413	2.246837
412	2.248254
411	2.251245
410	2.255750
409	2.258927
408	2.260444
407	2.265098
406	2.268177
405	2.271244
404	2.275318
403	2.276947
402	2.281841
401	2.285052
400	2.288308
399	2.292394
398	2.297326
397	2.303204
396	2.304888
395	2.307417
394	2.314285
393	2.319466
392	2.324684
391	2.329958
390	2.337976
389	2.342527
388	2.350022
387	2.352722
386	2.362180
385	2.369919
384	2.424352
383	2.732369
382	2.517395
381	2.509760
380	2.537902
379	2.382109
378	2.432603
377	2.428051
376	2.448265
375	2.428256
374	2.466483
373	2.486303
372	2.507334
371	2.380919
370	2.476182
369	2.502754
368	2.464680
367	2.527743
366	2.523349
365	2.516577
364	2.538921
363	2.528992
362	2.541839
361	2.510541
360	2.579980
359	2.602663
358	2.574861
357	2.594154
356	2.637285
355	2.532771
354	2.584143
353	2.613741
352	2.622138
351	2.638183
350	2.589454
349	2.630382
348	2.647800
347	2.557011
346	2.665164
345	2.674410
344	2.686092
343	2.590693
342	2.648195
341	2.700391
340	2.843860
339	2.512129
338	3.037164
337	2.961493
336	3.247393
335	2.969102
334	3.834463
333	3.041643
332	3.184081
331	2.909106
330	2.810845
329	3.070131
328	3.779176
327	2.980264
326	2.924288
325	2.931273
324	2.964983
323	2.900346
322	2.984977
321	2.988988
320	3.040985
319	3.027366
318	3.069815
317	3.069790
316	3.090040
315	3.069966
314	3.111544
313	3.145390
312	3.133963
311	3.188702
310	3.176062
309	3.222469
308	3.236814
307	3.182587
306	3.222750
305	3.299285
304	3.333972
303	3.402438
302	3.510256
301	3.523923
300	3.617323
299	3.583954
298	3.600240
297	4.112152
296	3.973623
295	3.973455
294	4.169641
293	4.412444
292	10
291	4.168964
290	4.315008
289	5.013764
288	4.235583
287	10
286	4.712372
285	10
284	10
283	4.110202
282	4.234981
281	5.013170
280	5.013027
279	10
278	10
277	4.535960
276	4.411152
275	4.013343
274	4.314356
273	10
272	4.235415
271	10
270	4.712658
269	4.712768
268	4.712961
267	4.110951
266	4.713259
265	4.537303
264	4.713432
263	10
262	5.014546
261	10
260	10
259	4.169590
258	4.236583
257	4.713705
256	10
255	4.713835
254	10
253	10
252	10
251	4.537580
250	4.537525
249	4.713587
248	5.014777
247	10
246	10
245	4.714095
244	4.538155
243	4.237263
242	5.015582
241	5.015712
240	5.015929
239	4.715063
238	5.016231
237	4.715481
236	5.016616
235	4.317913
234	4.539854
233	5.017263
232	4.415491
231	5.017889
230	4.717350
229	4.717908
228	10
227	4.543315
226	4.322294
225	4.545183
224	5.023228
223	10
222	10
221	5.024806
220	5.024814
219	4.422832
218	10
217	4.723952
216	4.724079
215	10
214	4.724346
213	5.025724
212	4.725090
211	4.327224
210	4.424567
209	5.027199
208	4.726638
207	10
206	10
205	5.029343
204	10
203	4.331508
202	4.554425
201	10
200	4.732466