File: adquisiciones/GaN uvvis/subidas/280.txt
34.9881 0.025874
35.3334 0.0258743
35.67612 0.0258751
36.02503 0.0258753
36.36911 0.0258753
36.71094 0.0258763
37.0538 0.0258766
37.39605 0.0258779
37.73944 0.0258784
38.08319 0.0258784
38.42567 0.0258784
38.76711 0.0258784
39.10862 0.0258784
39.45072 0.0258789
39.7927 0.025879
40.13377 0.0258792
40.47662 0.0258794
40.81844 0.0258795
41.15956 0.0258795
41.5032 0.0258795
41.84805 0.0258795
42.19081 0.0258795
42.53265 0.0258795
42.87579 0.0258794
43.22193 0.0258794
43.56807 0.0258795
43.91144 0.0258795
44.25435 0.0258792
44.59917 0.0258789
44.94279 0.0258788
45.2854 0.0258787
45.62649 0.0258786
45.97048 0.0258784
46.3143 0.0258782
46.657 0.0258782
47.00059 0.0258782
47.34255 0.0258782
48.08886 0.025878
48.43537 0.025878
48.7779 0.025878
49.12101 0.0258778
49.46127 0.0258772
49.80449 0.0258772
50.14716 0.0258769
50.48859 0.0258769
50.83051 0.0258767
51.17086 0.0258763
51.51203 0.0258737
51.85642 0.0258717
52.19646 0.0258713
52.53769 0.0258712
52.88263 0.0258707
53.22751 0.0258694
53.57297 0.0258683
53.91689 0.0258683
54.26212 0.0258683
54.60366 0.0258683
54.94506 0.0258678
55.28688 0.025868
55.62902 0.025868
55.97178 0.0258682
56.31479 0.0258685
56.65703 0.025869
56.99878 0.025869
57.3407 0.0258695
57.68279 0.0258695
58.02318 0.0258701
58.36681 0.0258701
58.70887 0.0258701
59.05512 0.0258701
59.39624 0.0258707
59.73776 0.025871
60.07946 0.0258717
60.4249 0.0258725
60.76611 0.0258725
61.10711 0.0258726
61.45107 0.0258726
61.79332 0.0258726
62.13679 0.025873
62.48034 0.0258732
62.82129 0.0258735
63.16224 0.0258735
63.90792 0.0258735
64.25074 0.0258739
64.59558 0.0258744
64.93729 0.0258748
65.28437 0.0258757
65.62785 0.0258766
65.9691 0.0258775
66.3095 0.0258832
66.65104 0.0258915
66.99526 0.025902
67.33781 0.0259126
67.68018 0.0259284
68.021 0.0259432
68.36465 0.0259469
68.70727 0.0259488
69.0519 0.0259502
69.39473 0.0259511
69.73677 0.0259519
70.0799 0.0259594
70.4218 0.0259744
70.76235 0.0259879
71.10676 0.0260019
71.45089 0.0260154
71.79377 0.0260266
72.1356 0.0260382
72.47625 0.0260501
72.81991 0.0260615
73.1618 0.0260744
73.50485 0.0260881
73.84799 0.0260992
74.18957 0.0261111
74.53148 0.0261216
74.87377 0.0261297
75.21527 0.0261379
75.55737 0.0261454
75.90059 0.0261536
76.24359 0.0261605
76.58719 0.0261661
76.92821 0.0261742
77.2708 0.0261823
77.61284 0.0261888
77.95741 0.0261952
78.30319 0.0262031
78.6461 0.0262102
78.98698 0.0262158
79.7326 0.0262216
80.07493 0.026227
80.41914 0.0262307
80.76236 0.0262315
81.10441 0.0262339
81.44567 0.0262389
81.78862 0.0262443
82.12976 0.0262476
82.47304 0.0262499
82.81739 0.0262531
83.16044 0.0262577
83.50248 0.0262616
83.84284 0.0262625
84.18501 0.0262643
84.52677 0.0262677
84.86977 0.0262695
85.2123 0.0262732
85.55531 0.0262797
85.89791 0.0262841
86.2396 0.0262876
86.58241 0.0262906
86.92333 0.0262917
87.26459 0.0262929
87.60755 0.0262968
87.95213 0.0263005
88.29482 0.0263035
88.63727 0.026306
88.97993 0.0263082
89.31969 0.0263101
89.65992 0.0263107
90.00226 0.0263112
90.34392 0.0263117
90.68771 0.0263122
91.02976 0.0263129
91.37129 0.0263136
91.71287 0.0263164
92.05496 0.0263194
92.397 0.0263198
92.73734 0.0263207
93.078 0.0263225
93.41905 0.0263237
93.76166 0.0263247
94.10541 0.0263271
94.44875 0.0263302
94.79214 0.0263316
95.53548 0.0263321
95.87523 0.0263321
96.21813 0.0263321
96.55948 0.0263321
96.90298 0.0263329
97.24412 0.0263331
97.5854 0.0263335
97.92851 0.0263339
98.27156 0.026336
98.61402 0.0263378
98.95688 0.0263384
99.30025 0.0263393
99.64086 0.0263397
99.98435 0.0263403
100.3293 0.0263411
100.6734 0.0263416
101.0159 0.0263424
101.358 0.0263424
101.7004 0.0263424
102.0414 0.0263424
102.385 0.0263438
102.7275 0.0263468
103.0687 0.0263479
103.4114 0.0263498
103.7534 0.0263521
104.097 0.0263539
104.4398 0.0263556
104.7808 0.026356
105.1237 0.0263566
105.4695 0.0263574
105.8103 0.0263579
106.1552 0.0263582
106.4978 0.0263588
106.8414 0.0263596
107.1847 0.0263616
107.5275 0.0263645
107.8694 0.0263659
108.209 0.0263661
108.5503 0.0263666
108.8901 0.0263671
109.2348 0.0263682
109.5766 0.0263694
109.9193 0.0263703
110.2593 0.0263721
110.5999 0.0263733
111.3445 0.0263737
111.6879 0.0263737
112.0307 0.0263737
112.3729 0.0263737
112.716 0.0263737
113.0595 0.0263743
113.4022 0.0263743
113.7453 0.0263743
114.0867 0.026375
114.4312 0.0263753
114.7733 0.0263758
115.1169 0.0263764
115.4593 0.0263767
115.8025 0.0263774
116.1438 0.0263779
116.4873 0.026378
116.857 0.026378
117.1972 0.0263784
117.5411 0.0263795
117.883 0.026381
118.2234 0.0263818
118.5656 0.0263836
118.9078 0.0263855
119.248 0.0263872
119.5877 0.0263889
119.9294 0.026389
120.27 0.0263904
120.6145 0.026392
120.9556 0.026392
121.2974 0.0263926
121.6384 0.0263926
121.9785 0.0263926
122.3218 0.0263928
122.6649 0.0263931
123.0051 0.0263932
123.3476 0.0263932
123.687 0.0263931
124.0275 0.0263928
124.3705 0.0263929
124.7114 0.0263932
125.0526 0.0263934
125.3936 0.0263934
125.7351 0.0263939
126.0751 0.0263939
126.419 0.0263942
127.1629 0.0263944
127.5073 0.0263944
127.8482 0.0263944
128.1896 0.0263944
128.5306 0.0263941
128.8729 0.0263948
129.2154 0.0263952
129.555 0.0263952
129.8969 0.0263952
130.2398 0.0263949
130.5807 0.0263953
130.9221 0.0263956
131.2642 0.026396
131.6061 0.0263968
131.9484 0.026396
132.2886 0.0263959
132.6332 0.0263959
132.9739 0.0263959
133.3146 0.0263959
133.6554 0.0263959
133.998 0.0263959
134.3401 0.0263963
134.6835 0.0263964
135.0256 0.0263967
135.3689 0.026397
135.7086 0.0263972
136.0507 0.0263973
136.3914 0.0263974
136.7325 0.0263975
137.0732 0.0263985
137.415 0.0263996
137.755 0.0264002
138.0969 0.0264009
138.4372 0.0264019
138.7777 0.0264032
139.1201 0.0264043
139.4606 0.0264048
139.8022 0.026405
140.1439 0.0264054
140.4846 0.0264059
140.8256 0.0264064
141.1683 0.0264064
141.5099 0.0264065
141.8498 0.0264066
142.1901 0.0264067
142.9352 0.0264069
143.2763 0.0264069
143.6167 0.0264069
143.9585 0.0264069
144.3013 0.0264069
144.6433 0.0264069
144.9864 0.0264067
145.3265 0.0264066
145.671 0.0264065
146.0131 0.0264061
146.3533 0.0264061
146.694 0.0264061
147.0362 0.0264056
147.3772 0.0264056
147.7187 0.0264056
148.0594 0.0264056
148.3991 0.0264061
148.741 0.0264061
149.0834 0.0264061
149.423 0.0264061
149.7641 0.0264061
150.1045 0.0264067
150.4453 0.0264072
150.7863 0.0264082
151.1262 0.0264085
151.4678 0.0264094
151.8078 0.0264096
152.152 0.0264096
152.4929 0.0264101
152.8342 0.0264105
153.1758 0.0264109
153.5154 0.0264112
153.8575 0.0264114
154.1994 0.0264116
154.5394 0.0264121
154.8797 0.0264125
155.2223 0.0264127
155.5643 0.0264127
155.9032 0.0264129
156.2456 0.0264143
156.5885 0.0264154
156.9305 0.0264159
157.2717 0.0264164
157.6119 0.0264181
157.9529 0.0264197
158.6972 0.0264198
159.0394 0.0264198
159.3795 0.0264198
159.7216 0.0264198
160.0626 0.0264198
160.4047 0.0264198
160.7486 0.0264199
161.0896 0.0264201
161.4305 0.0264202
161.771 0.0264202
162.1139 0.0264205
162.4555 0.0264209
162.7963 0.0264209
163.1385 0.026421
163.4812 0.0264216
163.8239 0.0264222
164.1665 0.0264228
164.5062 0.0264231
164.8483 0.0264234
165.1903 0.0264239
165.5318 0.0264239
165.8713 0.0264247
166.2136 0.0264251
166.5562 0.0264253
166.8979 0.0264258
167.2409 0.0264264
167.5836 0.0264277
167.9252 0.0264288
168.2656 0.0264293
168.6071 0.02643
168.9481 0.0264307
169.2916 0.026431
169.6336 0.0264312
169.9735 0.0264313
170.3147 0.0264313
170.6557 0.0264313
170.9957 0.0264313
171.3376 0.0264313
171.6783 0.0264313
172.0187 0.0264314
172.3614 0.0264319
172.7035 0.0264323
173.0449 0.0264323
173.3924 0.0264323
173.732 0.0264325
174.4767 0.0264328
174.8194 0.0264328
175.1613 0.0264328
175.5021 0.0264328
175.8434 0.0264322
176.1836 0.0264314
176.5239 0.0264314
176.8666 0.0264312
177.2074 0.0264312
177.5474 0.026432
177.8894 0.026432
178.2303 0.0264333
178.5718 0.0264344
178.9125 0.0264351
179.2528 0.0264353
179.5937 0.0264351
179.9366 0.0264344
180.2764 0.0264346
180.6184 0.0264331
180.96 0.0264325
181.3018 0.0264322
181.6444 0.0264322
181.9864 0.0264325
182.3281 0.0264337
182.6696 0.0264352
183.0114 0.0264352
183.3541 0.0264352
183.6958 0.0264352
184.036 0.0264339
184.3764 0.0264327
184.718 0.0264325
185.0593 0.0264325
185.4016 0.0264325
185.7418 0.0264325
186.083 0.0264325
186.4248 0.0264325
186.7652 0.0264322
187.1051 0.026432
187.446 0.026432
187.7885 0.0264319
188.1314 0.0264322
188.474 0.0264322
188.816 0.0264322
189.1569 0.0264322
189.5003 0.0264322
190.2443 0.0264322
190.585 0.0264321
190.9254 0.0264321
191.2669 0.0264317
191.6084 0.0264317
191.9499 0.0264317
192.2922 0.0264314
192.6323 0.0264312
192.9714 0.0264311
193.3135 0.026431
193.6541 0.0264301
193.9946 0.0264289
194.3355 0.0264289
194.6763 0.0264289
195.0184 0.0264289
195.3612 0.0264289
195.7025 0.0264289
196.0446 0.0264289
196.3878 0.0264289
196.7329 0.0264289
197.0758 0.0264289
197.4146 0.02643
197.7549 0.0264312
198.0976 0.0264321
198.4394 0.0264329
198.7815 0.0264338
199.123 0.026435
199.4634 0.0264355
199.8044 0.0264356
200.1483 0.0264359
200.4924 0.0264361
200.8337 0.0264366
201.1757 0.0264373
201.5167 0.0264375
201.8572 0.0264377
202.199 0.0264379
202.5394 0.0264382
202.8801 0.0264386
203.224 0.0264388
203.5638 0.0264391
203.9044 0.0264394
204.2462 0.0264395
204.5894 0.026441
204.9319 0.0264434
205.2739 0.0264446
206.0177 0.0264446
206.3577 0.0264446
206.699 0.0264446
207.0398 0.0264446
207.38 0.0264446
207.7209 0.0264446
208.0639 0.0264446
208.4046 0.0264448
208.7442 0.0264452
209.087 0.0264448
209.4296 0.0264448
209.7697 0.0264448
210.1107 0.0264454
210.4517 0.0264462
210.7925 0.0264462
211.1342 0.0264465
211.4764 0.0264465
211.8204 0.0264465
212.1634 0.0264467
212.5077 0.0264467
212.8503 0.0264469
213.1895 0.0264471
213.5315 0.0264475
213.8743 0.0264478
214.2163 0.0264497
214.5608 0.0264514
214.9035 0.0264515
215.2488 0.0264517
215.5899 0.0264521
215.9314 0.0264522
216.2737 0.0264525
216.6154 0.0264528
216.9553 0.0264529
217.2975 0.0264529
217.6378 0.0264531
217.9799 0.0264532
218.3214 0.0264535
218.6626 0.0264535
219.0053 0.0264535
219.3473 0.0264533
219.6873 0.0264532
220.0288 0.0264532
220.3695 0.0264532
220.714 0.0264531
221.0569 0.0264533
221.8011 0.0264537
222.1427 0.0264533
222.4826 0.0264533
222.8247 0.026453
223.167 0.026453
223.5117 0.0264526
223.8563 0.026452
224.1971 0.026452
224.5376 0.026452
224.8798 0.0264514
225.222 0.0264511
225.5641 0.0264511
225.9075 0.0264509
226.2495 0.0264509
226.5922 0.0264509
226.9359 0.0264511
227.2753 0.0264511
227.6169 0.0264513
227.9606 0.0264519
228.3027 0.0264519
228.6429 0.0264519
228.9837 0.0264528
229.3235 0.0264534
229.6656 0.026454
230.009 0.0264554
230.3518 0.0264565
230.6918 0.0264566
231.0362 0.0264569
231.3813 0.0264569
231.7219 0.0264569
232.0625 0.0264569
232.4035 0.0264573
232.746 0.0264573
233.0885 0.0264573
233.4312 0.0264576
233.7734 0.0264576
234.1132 0.0264573
234.4556 0.0264573
234.7972 0.0264573
235.1387 0.0264573
235.4782 0.0264573
235.8203 0.026457
236.1625 0.026457
236.5052 0.026457
236.8465 0.026457
237.59 0.0264572
237.9303 0.0264568
238.2725 0.0264567
238.6168 0.0264565
238.9586 0.0264565
239.2984 0.0264565
239.6414 0.0264565
239.9838 0.0264568
240.3253 0.0264565
240.6655 0.0264562
241.0067 0.0264562
241.3473 0.0264562
241.688 0.0264565
242.0299 0.0264569
242.3746 0.0264573
242.7172 0.0264573
243.0582 0.0264573
243.401 0.0264567
243.7433 0.0264562
244.0891 0.0264557
244.4321 0.0264557
244.7754 0.0264557
245.1176 0.0264562
245.4577 0.0264562
245.7995 0.0264562
246.1412 0.0264564
246.4826 0.0264564
246.8249 0.0264564
247.167 0.0264567
247.5073 0.026457
247.8481 0.0264571
248.1891 0.0264576
248.5309 0.0264576
248.8733 0.0264576
249.2132 0.0264576
249.5546 0.0264576
249.8966 0.0264578
250.2399 0.0264583
250.5808 0.0264594
250.9224 0.0264601
251.263 0.0264601
251.6039 0.0264601
251.9462 0.0264601
252.2881 0.0264602
252.6329 0.0264603
253.3784 0.0264603
253.7191 0.0264603
254.064 0.0264603
254.4057 0.0264603
254.7467 0.0264602
255.0871 0.0264601
255.4289 0.0264598
255.7716 0.0264588
256.1125 0.0264588
256.495 0.0264588
256.8363 0.0264598
257.1766 0.0264598
257.5158 0.0264598
257.8581 0.0264598
258.1989 0.0264598
258.5416 0.0264602
258.884 0.026461
259.2244 0.0264618
259.5668 0.0264618
259.9082 0.0264618
260.2474 0.0264618
260.5896 0.0264619
260.9314 0.0264628
261.2714 0.0264637
261.6137 0.0264638
261.9558 0.026464
262.296 0.0264643
262.6368 0.0264643
262.9767 0.0264644
263.3198 0.0264644
263.6616 0.0264644
264.0026 0.0264643
264.3434 0.0264643
264.6848 0.0264644
265.0256 0.0264646
265.3673 0.0264647
265.7082 0.0264648
266.0493 0.026465
266.3914 0.0264652
266.7321 0.0264654
267.0726 0.0264654
267.4144 0.0264654
267.7561 0.0264654
268.0969 0.0264656
268.437 0.0264658
269.1827 0.0264657
269.5231 0.0264655
269.8686 0.0264655
270.21 0.0264654
270.5505 0.0264652
270.8907 0.0264649
271.2308 0.0264649
271.5726 0.0264649
271.9138 0.0264648
272.2575 0.0264639
272.5982 0.0264639
272.9409 0.0264632
273.284 0.0264632
273.626 0.0264632
273.9666 0.0264632
274.3095 0.0264638
274.6496 0.0264639
274.9896 0.0264639
275.3277 0.0264635
275.6704 0.0264634
276.0132 0.0264634
276.3532 0.0264637
276.6932 0.0264642
277.0343 0.0264646
277.3745 0.0264648
277.7151 0.0264652
278.0565 0.0264656
278.3982 0.0264659
278.7413 0.0264664
279.0838 0.0264667
279.4253 0.0264669
279.7678 0.0264674
280.1079 0.0264678
280.4483 0.0264679
280.7923 0.026468
281.1348 0.0264681
281.4754 0.0264684
281.8194 0.0264685
282.1594 0.0264685
282.5001 0.0264685
282.8424 0.0264686
283.1832 0.0264686
283.5275 0.0264687
283.8679 0.0264686
284.2089 0.0264686
284.9554 0.0264686
285.2976 0.0264686
285.6406 0.0264685
285.9834 0.0264683
286.3248 0.0264683
286.667 0.026468
287.009 0.0264683
287.3499 0.026468
287.6923 0.026468
288.0333 0.026468
288.3764 0.026468
288.7194 0.0264679
289.0605 0.0264679
289.4016 0.0264679
289.743 0.026468
290.083 0.026468
290.4241 0.026468
290.764 0.026468
291.1067 0.0264681
291.4463 0.0264689
291.7878 0.02647
292.1281 0.0264706
292.4694 0.0264709
292.8106 0.0264711
293.1528 0.0264713
293.4955 0.0264716
293.8365 0.0264717
294.1768 0.0264719
294.5189 0.0264723
294.8618 0.0264727
295.203 0.0264728
295.5434 0.0264732
295.8852 0.026474
296.2252 0.0264749
296.5681 0.0264752
296.9098 0.0264757
297.2515 0.0264765
297.5939 0.026477
297.9345 0.026477
298.2743 0.026477
298.6147 0.026477
298.9568 0.026477
299.2966 0.026477
299.6392 0.026477
299.9796 0.026477
300.7232 0.026477
301.0653 0.026477
301.407 0.026477
301.7474 0.0264769
302.0874 0.0264767
302.4271 0.0264764
302.7692 0.0264761
303.1094 0.0264761
303.4501 0.0264756
303.7919 0.0264755
304.1317 0.026475
304.4721 0.0264741
304.8115 0.0264729
305.1538 0.0264728
305.4972 0.0264728
305.8405 0.0264728
306.1826 0.0264728
306.5247 0.0264728
306.8671 0.0264728
307.2075 0.0264728
307.5474 0.0264728
307.8903 0.0264731
308.2309 0.0264734
308.5733 0.026474
308.9147 0.0264745
309.2565 0.0264751
309.5965 0.0264759
309.9387 0.0264759
310.2809 0.0264763
310.6232 0.0264768
310.9631 0.0264773
311.3037 0.0264773
311.6442 0.0264775
311.9854 0.0264776
312.3276 0.0264778
312.6674 0.0264778
313.0081 0.026478
313.3528 0.026478
313.6949 0.0264779
314.0349 0.026478
314.3768 0.026478
314.7176 0.026478
315.0593 0.026478
315.3994 0.026478
315.7401 0.026478
316.4842 0.0264779
316.8256 0.0264779
317.1678 0.0264777
317.5069 0.0264775
317.8477 0.0264774
318.1857 0.0264772
318.5282 0.0264772
318.8702 0.0264772
319.2104 0.0264767
319.5515 0.0264765
319.8911 0.0264765
320.233 0.0264764
320.575 0.0264765
320.9145 0.0264765
321.2567 0.0264765
321.5985 0.0264765
321.9392 0.0264765
322.2799 0.0264765
322.6205 0.0264765
322.9618 0.0264765
323.3016 0.0264765
323.6431 0.0264768
323.9834 0.0264773
324.3237 0.0264777
324.6639 0.0264778
325.003 0.0264778
325.3453 0.0264778
325.6874 0.0264778
326.0281 0.0264779
326.371 0.0264779
326.7133 0.0264779
327.0524 0.0264783
327.3942 0.0264783
327.7333 0.0264783
328.0749 0.026479
328.4153 0.0264794
328.7569 0.0264794
329.097 0.0264794
329.439 0.0264794
329.7812 0.0264794
330.1234 0.0264794
330.4644 0.0264794
330.8044 0.0264794
331.1453 0.0264794
331.4858 0.0264794
332.2313 0.02648
332.5715 0.02648
332.9121 0.02648
333.2539 0.02648
333.5961 0.02648
333.9356 0.0264809
334.2757 0.0264809
334.618 0.0264809
334.959 0.0264814
335.2992 0.0264814
335.6397 0.0264819
335.9807 0.0264814
336.322 0.0264809
336.663 0.0264805
337.0048 0.0264804
337.347 0.0264802
337.6894 0.0264798
338.0319 0.0264798
338.3725 0.0264798
338.7147 0.0264798
339.0555 0.0264798
339.3984 0.0264798
339.738 0.0264802
340.0805 0.0264804
340.4228 0.0264804
340.7627 0.0264803
341.1036 0.0264801
341.4452 0.0264803
341.7852 0.0264803
342.1269 0.0264803
342.4697 0.0264803
342.8116 0.0264811
343.1525 0.0264818
343.4941 0.0264818
343.8354 0.0264822
344.1781 0.0264827
344.52 0.026483
344.8605 0.0264839
345.2025 0.0264848
345.5451 0.0264849
345.8871 0.0264851
346.2276 0.0264852
346.5677 0.0264852
346.9086 0.0264853
347.251 0.0264853
347.9928 0.0264853
348.3348 0.0264853
348.6754 0.0264853
349.0171 0.0264852
349.3592 0.0264852
349.7009 0.0264852
350.043 0.0264852