File: adquisiciones/GaN uvvis/subidas/300.txt
34.97079 0.0259454
35.31295 0.0259449
35.65624 0.0259403
35.99843 0.0259367
36.34204 0.0259365
36.68525 0.0259365
37.0308 0.0259365
37.37448 0.0259365
37.71566 0.0259365
38.05869 0.0259365
38.40195 0.0259365
38.74454 0.0259365
39.08719 0.0259365
39.4311 0.0259369
39.77396 0.0259371
40.11758 0.0259371
40.45896 0.0259371
40.80019 0.0259371
41.14159 0.0259371
41.48226 0.0259371
41.82604 0.0259371
42.16934 0.0259371
42.51581 0.0259371
42.85834 0.0259369
43.20054 0.0259376
43.54488 0.0259374
43.88504 0.0259374
44.22741 0.0259362
44.56843 0.0259362
44.90981 0.0259362
45.25249 0.0259362
45.59427 0.0259362
45.93626 0.025936
46.28068 0.025936
46.62427 0.025936
46.96584 0.0259367
47.30883 0.0259371
48.05383 0.0259371
48.39982 0.0259371
48.7442 0.0259371
49.08642 0.0259371
49.43025 0.0259371
49.77119 0.0259371
50.11433 0.0259371
50.45546 0.0259367
50.79935 0.025936
51.14384 0.0259352
51.48596 0.0259316
51.82956 0.0259277
52.17026 0.0259277
52.51158 0.0259275
52.85413 0.0259265
53.19715 0.0259255
53.53757 0.0259255
53.87982 0.0259255
54.22104 0.0259255
54.56097 0.0259254
54.90579 0.0259254
55.24764 0.0259254
55.5907 0.0259254
55.93297 0.0259254
56.27624 0.0259254
56.61904 0.0259254
56.96315 0.0259252
57.30618 0.025925
57.64961 0.0259249
57.99218 0.0259249
58.33421 0.0259249
58.67967 0.0259245
59.02248 0.0259242
59.36448 0.0259242
59.70703 0.0259242
60.04832 0.0259239
60.39142 0.0259236
60.73488 0.0259231
61.07834 0.0259226
61.4215 0.0259225
61.7653 0.0259219
62.1077 0.025921
62.45091 0.0259205
62.79649 0.0259209
63.13762 0.0259205
63.88223 0.0259203
64.22633 0.0259197
64.56752 0.0259192
64.9126 0.0259189
65.25361 0.0259187
65.59703 0.0259181
65.93752 0.0259172
66.28104 0.0259167
66.62304 0.0259165
66.96486 0.0259153
67.30742 0.0259114
67.64959 0.0259084
67.99179 0.025908
68.33229 0.0259076
68.67562 0.0259074
69.01782 0.0259074
69.36092 0.0259074
69.70319 0.0259074
70.04597 0.0259074
70.38858 0.0259073
70.7306 0.0259072
71.07089 0.0259072
71.41576 0.0259072
71.75765 0.0259072
72.10056 0.0259073
72.44394 0.025907
72.7867 0.025907
73.1263 0.025907
73.47016 0.025907
73.81174 0.025907
74.15217 0.0259074
74.49577 0.0259074
74.83757 0.0259078
75.17966 0.025908
75.52223 0.0259084
75.86678 0.0259084
76.20945 0.0259084
76.54992 0.0259084
76.89305 0.0259084
77.23348 0.0259087
77.57732 0.025909
77.91965 0.0259093
78.26667 0.0259093
78.61167 0.0259108
78.95277 0.0259169
79.70132 0.0259255
80.04276 0.0259348
80.3845 0.0259466
80.72915 0.0259587
81.07219 0.0259706
81.41687 0.025984
81.76053 0.0259964
82.10159 0.0260099
82.44726 0.0260231
82.78955 0.0260291
83.1358 0.0260344
83.48009 0.0260441
83.82588 0.0260571
84.16866 0.0260697
84.51216 0.0260802
84.85501 0.0260898
85.19921 0.0260977
85.53984 0.0261074
85.88293 0.0261169
86.22657 0.0261251
86.57011 0.0261322
86.91431 0.0261361
87.25685 0.0261395
87.59969 0.0261445
87.94461 0.0261519
88.2878 0.0261583
88.63183 0.0261637
88.97245 0.0261717
89.31612 0.0261806
89.66126 0.0261871
90.00612 0.0261915
90.34934 0.0261965
90.69161 0.0262018
91.0335 0.0262069
91.37576 0.0262124
91.71753 0.0262182
92.06025 0.0262228
92.40144 0.0262258
92.74154 0.0262287
93.08419 0.0262325
93.42768 0.0262378
93.76937 0.0262428
94.11113 0.0262447
94.4536 0.0262473
94.79667 0.0262514
95.54028 0.0262549
95.88233 0.0262549
96.2244 0.0262568
96.56779 0.0262585
96.91175 0.0262607
97.25433 0.0262622
97.59656 0.0262633
97.93643 0.0262649
98.2816 0.0262667
98.62263 0.0262687
98.96698 0.0262704
99.31011 0.0262716
99.65178 0.0262737
99.99868 0.0262752
100.3416 0.0262764
100.6827 0.0262783
101.0263 0.0262818
101.3674 0.0262867
101.7091 0.0262894
102.0516 0.0262902
102.3956 0.0262908
102.7394 0.0262929
103.0802 0.0262968
103.4229 0.026299
103.766 0.0263006
104.1078 0.0263028
104.4485 0.0263052
104.7918 0.0263082
105.1343 0.0263101
105.4766 0.0263117
105.8179 0.026314
106.1638 0.0263156
106.5089 0.0263172
106.8497 0.0263185
107.1945 0.026319
107.5362 0.0263194
107.8777 0.0263205
108.2198 0.0263232
108.5627 0.0263251
108.9051 0.0263258
109.2477 0.0263266
109.5902 0.0263269
109.9312 0.0263277
110.2705 0.0263295
110.6121 0.0263308
111.3566 0.0263315
111.6977 0.0263315
112.0388 0.0263315
112.3853 0.0263315
112.7262 0.0263315
113.0675 0.0263315
113.4104 0.0263315
113.7514 0.0263315
114.0943 0.026332
114.4369 0.0263324
114.7778 0.026333
115.119 0.026334
115.4627 0.0263342
115.8057 0.0263344
116.1477 0.0263344
116.4899 0.0263344
116.8584 0.0263347
117.2015 0.0263351
117.5431 0.026336
117.8855 0.0263372
118.2279 0.0263376
118.5696 0.0263382
118.9121 0.0263387
119.2518 0.026339
119.5938 0.026341
119.9349 0.0263449
120.2752 0.0263483
120.6163 0.0263483
120.9579 0.0263483
121.2992 0.0263493
121.6388 0.0263497
121.9803 0.0263501
122.3222 0.0263502
122.6623 0.0263507
123.0043 0.0263512
123.344 0.0263514
123.6859 0.0263514
124.0272 0.0263517
124.3685 0.0263522
124.7095 0.0263527
125.0495 0.026353
125.3918 0.026354
125.7342 0.0263549
126.0749 0.0263551
126.4151 0.0263566
127.1595 0.0263569
127.5001 0.0263569
127.841 0.0263569
128.1822 0.0263569
128.5225 0.0263569
128.8615 0.0263569
129.2022 0.0263573
129.5444 0.0263579
129.8859 0.0263583
130.2265 0.0263585
130.5665 0.0263587
130.9065 0.026359
131.2494 0.0263591
131.5896 0.0263591
131.9335 0.0263591
132.2737 0.0263593
132.6162 0.0263593
132.9575 0.0263593
133.2991 0.0263593
133.641 0.0263596
133.9836 0.0263599
134.3259 0.0263604
134.6665 0.0263624
135.0093 0.0263646
135.3498 0.0263657
135.6915 0.0263675
136.0325 0.0263688
136.3895 0.0263693
136.7312 0.0263696
137.0733 0.0263701
137.4156 0.0263706
137.7564 0.0263706
138.0964 0.0263706
138.437 0.0263707
138.7772 0.0263708
139.1186 0.0263711
139.4582 0.026372
139.8005 0.0263729
140.1422 0.0263731
140.4819 0.0263737
140.8232 0.0263744
141.1634 0.0263744
141.5052 0.0263744
141.8465 0.0263748
142.1883 0.0263748
142.9321 0.0263748
143.2735 0.0263748
143.6157 0.0263744
143.9557 0.0263741
144.2954 0.0263737
144.6371 0.0263737
144.9789 0.0263737
145.3209 0.0263741
145.6608 0.0263743
146.0013 0.0263737
146.3416 0.0263733
146.683 0.0263727
147.0247 0.0263723
147.3642 0.0263719
147.7066 0.0263712
148.0492 0.0263711
148.3905 0.0263709
148.7315 0.0263703
149.0717 0.0263691
149.4128 0.0263684
149.7526 0.0263683
150.0956 0.0263683
150.4368 0.0263683
150.7767 0.0263683
151.1178 0.0263683
151.4591 0.0263683
151.7989 0.0263683
152.1408 0.0263683
152.4811 0.0263683
152.8234 0.0263683
153.1638 0.0263683
153.5058 0.0263688
153.8476 0.0263688
154.1888 0.0263688
154.5317 0.0263688
154.8743 0.0263688
155.2164 0.0263693
155.5564 0.0263697
155.8964 0.0263703
156.2387 0.0263711
156.5815 0.0263723
156.9218 0.0263732
157.2624 0.0263734
157.6045 0.0263744
157.9462 0.0263761
158.691 0.0263774
159.0336 0.0263774
159.3761 0.0263774
159.7161 0.0263774
160.0563 0.0263774
160.3975 0.0263786
160.7382 0.0263794
161.0781 0.0263794
161.4188 0.0263795
161.76 0.0263796
162.1019 0.0263797
162.4423 0.0263797
162.7845 0.0263797
163.1266 0.0263797
163.4667 0.0263803
163.8073 0.0263797
164.1496 0.0263796
164.4916 0.0263796
164.8311 0.0263795
165.1717 0.0263793
165.5135 0.0263789
165.8536 0.026379
166.1964 0.0263793
166.5383 0.0263795
166.879 0.0263795
167.2192 0.0263796
167.5594 0.0263794
167.8994 0.0263797
168.2412 0.0263797
168.5822 0.0263798
168.9232 0.0263798
169.2658 0.0263798
169.6071 0.0263798
169.9474 0.0263798
170.2902 0.0263798
170.6332 0.02638
170.9757 0.0263809
171.3171 0.0263821
171.6575 0.026384
171.9997 0.026387
172.3396 0.0263884
172.6799 0.0263888
173.0222 0.0263901
173.3653 0.026391
173.7068 0.0263912
174.4506 0.0263914
174.7913 0.0263914
175.1316 0.0263914
175.4717 0.0263914
175.8135 0.0263914
176.1555 0.0263914
176.4984 0.0263914
176.8375 0.0263912
177.1797 0.026391
177.519 0.0263904
177.8599 0.0263894
178.2028 0.0263889
178.5433 0.0263889
178.8864 0.0263889
179.2284 0.0263889
179.5695 0.0263892
179.9094 0.0263892
180.2535 0.0263892
180.5942 0.0263892
180.9355 0.0263892
181.2762 0.0263892
181.6174 0.0263899
181.9608 0.0263901
182.3023 0.0263903
182.6426 0.0263907
182.983 0.0263908
183.3252 0.0263909
183.6664 0.0263913
184.0077 0.026392
184.3495 0.0263926
184.6904 0.026393
185.0322 0.0263936
185.3732 0.0263944
185.7138 0.0263955
186.056 0.0263963
186.3985 0.0263968
186.7388 0.0263974
187.0821 0.0263974
187.4225 0.0263976
187.7642 0.026398
188.1054 0.0263982
188.4462 0.0263982
188.7858 0.0263982
189.128 0.0263983
189.4702 0.0263983
190.2134 0.0263985
190.5532 0.0263985
190.896 0.0263983
191.2378 0.0263983
191.5782 0.0263983
191.919 0.0263982
192.26 0.026398
192.6014 0.0263974
192.9421 0.0263969
193.283 0.0263966
193.6244 0.0263964
193.9668 0.0263963
194.3095 0.0263961
194.6495 0.0263958
194.9901 0.0263953
195.3305 0.0263943
195.6705 0.0263943
196.0132 0.0263943
196.3561 0.0263943
196.6981 0.0263943
197.0397 0.0263943
197.3822 0.0263949
197.7246 0.0263954
198.0658 0.0263955
198.4081 0.0263958
198.7478 0.0263959
199.0895 0.0263959
199.43 0.0263958
199.7716 0.0263954
200.1118 0.0263951
200.4545 0.026395
200.7965 0.026395
201.136 0.0263951
201.4762 0.0263951
201.8181 0.0263954
202.1612 0.0263958
202.5021 0.026396
202.8435 0.0263963
203.1866 0.0263963
203.5276 0.0263963
203.8684 0.0263963
204.2112 0.0263969
204.5538 0.0263972
204.8963 0.0263973
205.2374 0.0263981
205.9807 0.0263991
206.3226 0.0263991
206.6647 0.0263991
207.0066 0.0263991
207.3498 0.0263991
207.6913 0.0263991
208.0328 0.0263991
208.3714 0.0263988
208.7117 0.0263988
209.0524 0.0263988
209.3946 0.0263979
209.7348 0.0263974
210.076 0.0263974
210.4163 0.0263974
210.7586 0.0263971
211.0997 0.0263971
211.4426 0.0263971
211.7824 0.0263971
212.1235 0.0263971
212.4656 0.0263971
212.8084 0.0263971
213.1495 0.0263979
213.4906 0.0263983
213.8353 0.0263985
214.1765 0.0263993
214.5181 0.0264011
214.8591 0.026404
215.2014 0.0264057
215.5428 0.0264057
215.8833 0.0264057
216.2231 0.0264057
216.5633 0.0264057
216.9041 0.026406
217.2446 0.026406
217.5864 0.026406
217.9306 0.026406
218.2715 0.026406
218.6141 0.0264057
218.9553 0.0264057
219.2972 0.0264055
219.6408 0.0264055
219.9817 0.0264055
220.3232 0.0264055
220.6648 0.0264055
221.0058 0.0264055
221.751 0.0264056
222.0938 0.0264054
222.4362 0.0264053
222.7747 0.0264053
223.1165 0.0264053
223.4564 0.0264053
223.7985 0.0264053
224.1382 0.0264049
224.4801 0.0264049
224.8196 0.0264049
225.1603 0.0264017
225.5021 0.0263968
225.8421 0.0263968
226.184 0.0263968
226.5261 0.0263968
226.869 0.0263968
227.2106 0.0263964
227.5506 0.0263964
227.8913 0.0263964
228.233 0.0263964
228.5756 0.0263964
228.9181 0.0263979
229.2578 0.0263986
229.5985 0.0263989
229.9401 0.0263993
230.2835 0.0263995
230.6262 0.0263997
230.9698 0.0264003
231.3141 0.0264008
231.6539 0.0264011
231.996 0.0264012
232.3385 0.0264015
232.68 0.0264017
233.0244 0.0264019
233.3671 0.0264023
233.7115 0.0264019
234.0535 0.0264024
234.3966 0.026403
234.7386 0.0264037
235.083 0.0264037
235.4255 0.0264037
235.7654 0.0264037
236.1038 0.0264037
236.4448 0.0264041
236.7849 0.0264041
237.5304 0.0264041
237.8735 0.0264041
238.215 0.0264041
238.556 0.0264041
238.8997 0.0264041
239.2415 0.0264041
239.5826 0.026404
239.9235 0.026404
240.2647 0.026404
240.6053 0.026404
240.9473 0.0264041
241.2915 0.0264041
241.6345 0.0264041
241.9763 0.0264041
242.3155 0.0264041
242.6578 0.0264042
242.9977 0.0264041
243.3385 0.0264042
243.6804 0.0264042
244.0207 0.0264042
244.3618 0.0264042
244.7028 0.0264043
245.0451 0.0264046
245.3849 0.0264047
245.7254 0.0264047
246.0677 0.0264047
246.4075 0.0264048
246.7506 0.0264048
247.0921 0.026405
247.4346 0.0264053
247.7743 0.0264059
248.1148 0.026406
248.4564 0.026406
248.7987 0.0264063
249.1418 0.026406
249.487 0.0264058
249.8285 0.0264058
250.1692 0.0264056
250.5116 0.0264052
250.8514 0.0264048
251.1938 0.0264048
251.537 0.0264052
251.8769 0.0264052
252.2209 0.0264056
252.5614 0.0264057
253.3073 0.0264058
253.6513 0.0264057
253.9946 0.0264057
254.3369 0.0264056
254.6785 0.0264057
255.0188 0.0264057
255.3604 0.0264052
255.7031 0.0264058
256.044 0.0264058
256.3858 0.0264059
256.727 0.0264064
257.0677 0.0264067
257.4076 0.0264068
257.7494 0.0264069
258.0913 0.0264069
258.4361 0.0264069
258.7777 0.0264069
259.1172 0.0264069
259.4585 0.0264069
259.7978 0.0264069
260.1399 0.0264069
260.4804 0.0264072
260.8204 0.0264077
261.1634 0.026408
261.5039 0.0264087
261.8457 0.0264094
262.1902 0.0264095
262.5298 0.0264098
262.8716 0.0264098
263.2141 0.0264098
263.5555 0.0264102
263.8956 0.0264106
264.2382 0.0264119
264.581 0.0264129
264.9234 0.0264137
265.2637 0.0264147
265.6041 0.0264147
265.9439 0.0264147
266.2861 0.0264147
266.6268 0.0264149
266.9702 0.0264149
267.312 0.0264151
267.6538 0.0264153
267.9937 0.0264152
268.3357 0.0264152
269.0797 0.026415
269.4222 0.026415
269.7622 0.0264146
270.1026 0.0264146
270.4446 0.0264146
270.7876 0.0264138
271.1323 0.0264132
271.4724 0.0264124
271.8123 0.0264112
272.1533 0.0264103
272.4956 0.0264101
272.8379 0.0264101
273.1785 0.0264091
273.5188 0.0264077
273.8601 0.0264065
274.2017 0.0264057
274.5423 0.0264057
274.8823 0.0264057
275.2266 0.0264057
275.5665 0.0264057
275.9076 0.0264057
276.2493 0.0264065
276.5918 0.0264077
276.9325 0.0264082
277.2733 0.0264082
277.6141 0.0264084
277.9554 0.0264087
278.2954 0.0264091
278.6376 0.0264095
278.9789 0.0264096
279.3197 0.0264095
279.6645 0.0264094
280.0062 0.0264095
280.348 0.0264095
280.6906 0.0264095
281.0315 0.0264096
281.3738 0.0264096
281.7156 0.0264096
282.0556 0.0264096
282.3972 0.0264096
282.7383 0.0264096
283.0809 0.0264097
283.4217 0.0264098
283.7636 0.02641
284.1037 0.0264103
284.8473 0.0264108
285.1875 0.0264108
285.5273 0.0264108
285.8693 0.0264108
286.2113 0.0264108
286.5541 0.0264108
286.8957 0.0264108
287.2387 0.0264101
287.5789 0.0264101
287.9188 0.0264101
288.263 0.0264094
288.6055 0.0264074
288.9488 0.0264066
289.2902 0.0264065
289.6321 0.026406
289.9722 0.026405
290.3126 0.026405
290.6539 0.026405
290.9959 0.026405
291.3389 0.026405
291.6811 0.026405
292.0222 0.026406
292.3661 0.0264065
292.7064 0.0264067
293.047 0.0264075
293.3886 0.0264083
293.7291 0.0264101
294.0721 0.0264128
294.412 0.0264137
294.7538 0.0264137
295.0962 0.0264143
295.4369 0.0264149
295.7764 0.026415
296.1186 0.0264153
296.4582 0.0264155
296.7996 0.0264157
297.1398 0.026416
297.4813 0.0264162
297.8219 0.0264162
298.1632 0.0264162
298.5051 0.0264161
298.8466 0.026416
299.1884 0.026416
299.5302 0.0264154
299.8723 0.0264154
300.6172 0.0264148
300.9586 0.0264137
301.298 0.0264137
301.6394 0.0264131
301.98 0.0264124
302.3218 0.0264124
302.6649 0.0264119
303.0071 0.0264112
303.348 0.026411
303.6892 0.026411
304.0317 0.026411
304.3745 0.026411
304.7149 0.026411
305.0572 0.026411
305.3972 0.026411
305.7386 0.026411
306.0787 0.026411
306.4205 0.0264117
306.7626 0.0264126
307.1037 0.026413
307.4444 0.0264137
307.7874 0.0264137
308.1269 0.0264145
308.4673 0.0264151
308.8097 0.0264156
309.1501 0.0264159
309.4903 0.0264159
309.8323 0.0264159
310.1721 0.0264159
310.5142 0.0264159
310.8562 0.0264159
311.1957 0.0264159
311.5379 0.0264159
311.8809 0.0264159
312.2233 0.0264156
312.5657 0.0264156
312.9058 0.0264151
313.247 0.0264151
313.587 0.0264151
313.9286 0.0264151
314.271 0.0264151
314.6112 0.0264157
314.9511 0.0264157
315.2935 0.0264157
315.6342 0.0264157
316.3789 0.0264157
316.72 0.0264157
317.0615 0.0264157
317.4027 0.0264157
317.7475 0.0264157
318.088 0.0264157
318.4298 0.0264156
318.7706 0.0264156
319.1123 0.0264158
319.4541 0.0264158
319.7956 0.0264155
320.1358 0.0264156
320.4757 0.0264156
320.816 0.0264156
321.1572 0.0264156
321.4975 0.0264156
321.84 0.0264153
322.1827 0.0264153
322.5235 0.0264153
322.8676 0.0264151
323.2094 0.0264151
323.5502 0.0264151
323.8902 0.0264151
324.2298 0.0264153
324.5722 0.0264153
324.912 0.0264155
325.2527 0.0264157
325.5925 0.0264159
325.9346 0.026416
326.2745 0.0264164
326.6148 0.0264164
326.9551 0.0264167
327.2974 0.0264165
327.6396 0.0264165
327.9813 0.0264165
328.3237 0.0264165
328.6669 0.0264168
329.0074 0.026417
329.3492 0.0264171
329.6903 0.0264172
330.031 0.0264173
330.3713 0.0264177
330.7121 0.0264181
331.0534 0.0264186
331.3952 0.0264186
332.1389 0.0264189
332.4785 0.0264189
332.8202 0.0264189
333.1628 0.0264189
333.5034 0.0264189
333.8434 0.0264189
334.1837 0.0264189
334.5255 0.0264193
334.8662 0.0264196
335.2068 0.0264199
335.5486 0.0264199
335.8895 0.0264196
336.2302 0.0264198
336.5699 0.0264196
336.9108 0.0264195
337.2508 0.0264193
337.5914 0.0264191
337.9333 0.0264186
338.2753 0.0264182
338.6152 0.0264177
338.9559 0.0264175
339.2979 0.0264175
339.6396 0.0264175
339.9797 0.0264177
340.3203 0.0264179
340.6598 0.026418
341.0077 0.0264182
341.348 0.0264182
341.6887 0.0264182
342.0305 0.0264182
342.3729 0.0264186
342.7142 0.0264186
343.056 0.0264186
343.3959 0.0264189
343.7386 0.0264189
344.0804 0.0264189
344.4237 0.0264191
344.7653 0.0264193
345.1077 0.0264196
345.4501 0.0264201
345.7928 0.0264202
346.1355 0.0264202
346.4778 0.0264204
346.819 0.0264205
347.16 0.0264208
347.9046 0.0264212
348.2458 0.0264212
348.5857 0.0264208
348.9262 0.0264207
349.2669 0.0264207
349.6075 0.0264204
349.9484 0.0264202