File: adquisiciones/GaN uvvis/subidas/320.txt
69.32241 0.0258595
69.66599 0.0258595
70.00646 0.0258595
70.35201 0.0258595
70.69481 0.0258595
71.03683 0.0258599
71.37915 0.0258603
71.72293 0.0258606
72.06825 0.0258607
72.41132 0.0258608
72.75151 0.0258608
73.0936 0.0258616
73.4385 0.0258628
73.77932 0.0258632
74.12 0.0258632
74.46088 0.0258636
74.80376 0.0258636
75.14666 0.0258639
75.48881 0.0258644
75.83567 0.0258649
76.1816 0.0258651
76.52226 0.0258651
76.86578 0.0258652
77.20881 0.0258652
77.55057 0.0258655
77.89299 0.0258658
78.23541 0.0258658
78.57749 0.0258661
78.91997 0.0258661
79.66468 0.0258661
80.00713 0.0258661
80.34954 0.0258661
80.69149 0.0258658
81.03433 0.0258658
81.37432 0.0258658
81.71573 0.0258658
82.05766 0.0258658
82.39867 0.0258654
82.74085 0.0258644
83.08348 0.0258617
83.42462 0.0258599
83.77116 0.0258591
84.11383 0.0258591
84.4553 0.0258591
84.79567 0.0258591
85.13815 0.0258591
85.48235 0.0258591
85.82523 0.0258591
86.1678 0.0258591
86.51197 0.0258591
86.85311 0.0258596
87.19488 0.02586
87.53721 0.0258603
87.87926 0.0258605
88.22002 0.0258608
88.56069 0.0258611
88.90532 0.0258611
89.2478 0.0258613
89.59063 0.0258615
89.93314 0.0258618
90.27473 0.0258621
90.61892 0.0258621
90.96478 0.0258621
91.30711 0.0258621
91.65518 0.0258623
91.99978 0.0258625
92.34018 0.0258625
92.68337 0.0258623
93.02376 0.0258623
93.36776 0.0258619
93.71073 0.0258616
94.0521 0.0258619
94.39467 0.0258619
94.73794 0.0258623
95.48437 0.0258623
95.82558 0.0258619
96.16837 0.0258619
96.51174 0.0258616
96.85391 0.0258615
97.19696 0.0258612
97.54619 0.0258609
97.88758 0.0258602
98.22893 0.0258595
98.61275 0.02586
98.95408 0.02586
99.29576 0.02586
99.63575 0.0258588
99.97567 0.0258577
100.3196 0.0258574
100.6623 0.0258574
101.0054 0.0258574
101.3464 0.0258574
101.6891 0.0258574
102.0326 0.0258574
102.3728 0.0258574
102.7153 0.025859
103.0576 0.0258605
103.4041 0.0258607
103.7474 0.0258607
104.0882 0.0258609
104.4299 0.0258612
104.7714 0.0258612
105.1128 0.0258612
105.4558 0.0258609
105.799 0.0258609
106.1398 0.0258609
106.4823 0.0258612
106.8249 0.0258615
107.1677 0.0258615
107.5104 0.0258619
107.8533 0.0258619
108.1964 0.0258615
108.5386 0.0258615
108.8815 0.025861
109.2237 0.0258613
109.5674 0.025861
109.9096 0.0258611
110.2512 0.0258613
110.5928 0.0258617
111.3404 0.0258617
111.6814 0.0258617
112.0235 0.0258619
112.3637 0.0258623
112.7051 0.0258625
113.0489 0.0258626
113.3914 0.0258628
113.7354 0.0258632
114.0773 0.0258652
114.4221 0.025869
114.7653 0.0258769
115.1056 0.0258838
115.4507 0.025895
115.796 0.025911
116.138 0.0259189
116.479 0.0259256
116.8212 0.0259373
117.1637 0.0259463
117.5048 0.0259552
117.8463 0.0259662
118.1883 0.0259714
118.5296 0.0259753
118.87 0.0259827
119.2148 0.0259902
119.5572 0.0259961
119.8999 0.0260021
120.2434 0.0260075
120.5848 0.0260126
120.9255 0.0260192
121.2722 0.026025
121.6168 0.0260293
121.9591 0.0260349
122.3001 0.0260415
122.6495 0.026048
122.9921 0.0260535
123.3358 0.0260582
123.6768 0.0260635
124.0216 0.026068
124.3641 0.0260723
124.7041 0.0260784
125.0463 0.0260841
125.3885 0.0260883
125.7311 0.0260924
126.0728 0.0260975
126.4136 0.0261009
127.1579 0.0261036
127.5041 0.0261066
127.8474 0.026108
128.1896 0.0261107
128.5336 0.0261136
128.8753 0.0261154
129.2192 0.0261185
129.5612 0.026122
129.9037 0.0261254
130.2442 0.0261289
130.5867 0.0261325
130.928 0.0261347
131.2708 0.0261352
131.6121 0.0261381
131.954 0.0261427
132.2957 0.0261469
132.6383 0.0261522
132.9791 0.0261565
133.3241 0.0261581
133.6669 0.0261594
134.0092 0.026161
134.3518 0.0261627
134.6918 0.0261662
135.0353 0.0261696
135.3772 0.0261706
135.719 0.0261709
136.0626 0.0261722
136.4041 0.0261747
136.7468 0.026178
137.0897 0.0261809
137.4332 0.0261829
137.7754 0.0261839
138.118 0.026185
138.4605 0.0261887
138.8037 0.0261918
139.1454 0.0261923
139.4864 0.0261927
139.8277 0.0261927
140.1713 0.0261936
140.5123 0.0261965
140.858 0.0261986
141.2015 0.0262006
141.5428 0.0262041
141.886 0.0262076
142.2262 0.0262112
142.9733 0.0262136
143.3164 0.0262136
143.6559 0.0262136
143.9979 0.0262136
144.3405 0.0262138
144.6824 0.0262141
145.0222 0.0262141
145.3645 0.0262142
145.7067 0.0262144
146.05 0.0262148
146.391 0.0262155
146.7338 0.0262161
147.0761 0.0262165
147.4191 0.0262179
147.7618 0.0262197
148.1045 0.0262209
148.4449 0.026223
148.7886 0.0262244
149.1321 0.026225
149.4748 0.0262255
149.8176 0.0262261
150.1598 0.0262265
150.5021 0.0262266
150.8423 0.0262276
151.1834 0.0262289
151.5241 0.0262292
151.8681 0.0262305
152.2111 0.0262323
152.5561 0.0262347
152.8979 0.0262371
153.2383 0.026238
153.5813 0.0262387
153.9207 0.0262389
154.2663 0.0262399
154.6081 0.026241
154.9501 0.0262422
155.2921 0.0262434
155.6357 0.0262439
155.9776 0.0262453
156.321 0.0262468
156.6663 0.0262475
157.007 0.0262482
157.3529 0.0262488
157.6965 0.026249
158.039 0.0262491
158.7877 0.0262492
159.1298 0.0262492
159.4722 0.0262492
159.8158 0.0262492
160.1575 0.0262492
160.5004 0.0262492
160.8408 0.0262494
161.1842 0.0262494
161.5254 0.02625
161.8707 0.02625
162.212 0.02625
162.5552 0.0262505
162.8958 0.0262508
163.2377 0.0262512
163.5813 0.0262517
163.9241 0.0262526
164.2672 0.0262532
164.6096 0.0262535
164.9537 0.0262537
165.2957 0.0262539
165.6387 0.0262541
165.9806 0.0262543
166.3227 0.0262547
166.6634 0.0262555
167.0044 0.0262572
167.3455 0.0262591
167.689 0.02626
168.0319 0.0262606
168.3743 0.0262612
168.718 0.0262615
169.0606 0.0262619
169.4032 0.0262621
169.7439 0.0262624
170.0866 0.0262626
170.4275 0.0262627
170.7703 0.026263
171.1117 0.0262634
171.4547 0.0262637
171.7973 0.0262643
172.1375 0.026265
172.4794 0.0262654
172.8224 0.0262655
173.1646 0.0262657
173.5079 0.0262663
173.8501 0.026267
174.5947 0.0262675
174.9374 0.0262675
175.2814 0.0262675
175.623 0.0262675
175.9659 0.0262675
176.3061 0.0262678
176.6491 0.0262678
176.9911 0.0262681
177.3318 0.026269
177.6731 0.0262698
178.0169 0.0262701
178.3597 0.0262702
178.7007 0.0262704
179.042 0.0262705
179.384 0.0262704
179.7248 0.0262704
180.0669 0.0262704
180.4073 0.0262705
180.7485 0.0262705
181.0889 0.0262705
181.43 0.0262709
181.7728 0.0262713
182.1157 0.0262717
182.4597 0.0262725
182.8007 0.0262729
183.1457 0.026273
183.4877 0.0262738
183.8276 0.0262747
184.1685 0.026275
184.5107 0.0262758
184.8521 0.0262766
185.192 0.026277
185.5352 0.0262773
185.8775 0.0262778
186.2192 0.0262782
186.5613 0.0262785
186.9054 0.0262789
187.2472 0.0262791
187.5894 0.0262796
187.9322 0.0262805
188.2726 0.026281
188.6148 0.0262815
188.9576 0.0262821
189.3023 0.0262835
189.645 0.0262855
190.3903 0.0262864
190.7335 0.0262864
191.0757 0.0262864
191.4232 0.0262864
191.7655 0.0262864
192.1058 0.0262864
192.4487 0.0262864
192.7923 0.0262864
193.1347 0.0262865
193.4757 0.0262865
193.8166 0.0262867
194.158 0.0262875
194.4997 0.0262875
194.8428 0.0262883
195.1859 0.0262886
195.5276 0.0262891
195.8687 0.0262895
196.2094 0.0262895
196.553 0.0262895
196.896 0.0262895
197.2375 0.0262895
197.5811 0.0262898
197.9248 0.02629
198.2654 0.0262903
198.6061 0.0262909
198.9526 0.0262916
199.2936 0.0262923
199.6369 0.0262928
199.9812 0.0262931
200.3241 0.0262936
200.6673 0.0262943
201.0081 0.0262947
201.3492 0.0262951
201.6916 0.0262964
202.036 0.0262976
202.3774 0.0262981
202.7193 0.0262987
203.0616 0.0262998
203.4087 0.0263005
203.7495 0.0263005
204.0918 0.0263005
204.4332 0.0263005
204.774 0.0263005
205.1153 0.0263005
205.4568 0.0263005
206.2033 0.0263005
206.5442 0.0263005
206.8856 0.0263005
207.2265 0.0263
207.5718 0.0262995
207.9152 0.0262993
208.2557 0.0262988
208.5964 0.026298
208.9411 0.0262972
209.2852 0.0262967
209.6301 0.0262957
209.9719 0.0262957
210.312 0.0262957
210.6579 0.0262957
211.001 0.0262957
211.3412 0.0262957
211.6838 0.0262945
212.0242 0.0262937
212.3683 0.0262937
212.7114 0.0262933
213.0558 0.0262933
213.3987 0.0262937
213.741 0.0262937
214.086 0.026294
214.429 0.0262944
214.7713 0.0262949
215.1131 0.0262952
215.4542 0.0262953
215.7957 0.0262956
216.1383 0.0262959
216.4802 0.0262959
216.8228 0.0262956
217.1641 0.0262953
217.5059 0.0262952
217.8473 0.0262952
218.1892 0.026295
218.5321 0.0262952
218.8748 0.0262953
219.2165 0.0262953
219.5566 0.0262955
219.8984 0.0262955
220.24 0.0262957
220.5811 0.0262957
220.9248 0.0262959
221.2685 0.026296
222.0112 0.026296
222.3568 0.0262958
222.7005 0.0262957
223.0422 0.0262954
223.3853 0.0262952
223.7285 0.0262952
224.0718 0.0262954
224.4136 0.0262957
224.7566 0.0262958
225.0985 0.0262961
225.4406 0.0262961
225.7847 0.0262961
226.1272 0.026296
226.4703 0.0262956
226.8126 0.0262956
227.1574 0.0262956
227.5009 0.0262947
227.8433 0.0262938
228.1865 0.0262936
228.5276 0.0262936
228.8711 0.0262932
229.2121 0.0262932
229.5566 0.0262932
229.8998 0.0262932
230.2402 0.0262933
230.5821 0.0262933
230.9238 0.0262933
231.2675 0.0262933
231.6091 0.0262933
231.9503 0.0262933
232.2937 0.0262933
232.6353 0.0262933
233.0045 0.0262933
233.3481 0.0262937
233.6901 0.0262941
234.0331 0.0262959
234.3755 0.026298
234.7166 0.0263003
235.0601 0.0263021
235.4022 0.0263025
235.7442 0.0263028
236.084 0.0263032
236.4266 0.0263037
236.7675 0.0263037
237.1104 0.026304
237.8524 0.0263042
238.1943 0.0263042
238.5353 0.0263042
238.8778 0.0263042
239.2212 0.026304
239.5632 0.026304
239.9036 0.026304
240.2447 0.0263037
240.5868 0.0263035
240.9313 0.0263028
241.2716 0.0263024
241.6116 0.0263023
241.9539 0.0263019
242.2956 0.0263012
242.6364 0.0263007
242.9789 0.0263006
243.3201 0.0263
243.6612 0.0262992
244.0011 0.026299
244.3418 0.026299
244.6809 0.026299
245.0212 0.0262992
245.3702 0.0262995
245.7135 0.0263001
246.0552 0.0263006
246.3968 0.0263007
246.7386 0.026301
247.0803 0.0263016
247.4218 0.0263018
247.7632 0.0263018
248.1039 0.0263018
248.4469 0.0263018
248.7883 0.026302
249.1288 0.0263023
249.4695 0.0263026
249.8115 0.026303
250.1526 0.0263033
250.4944 0.0263033
250.8359 0.0263034
251.177 0.0263034
251.5184 0.0263038
251.8598 0.0263042
252.2004 0.0263043
252.5408 0.0263043
252.8809 0.0263043
253.6252 0.0263045
253.9658 0.0263042
254.3068 0.0263042
254.6494 0.0263042
254.9926 0.0263042
255.3333 0.0263042
255.6751 0.0263042
256.0157 0.0263042
256.3559 0.0263034
256.6979 0.026303
257.0392 0.0263015
257.3807 0.0263012
257.7203 0.0263
258.0626 0.0262987
258.4036 0.0262983
258.7435 0.0262983
259.0853 0.0262983
259.4263 0.0262983
259.768 0.0262983
260.1093 0.0262983
260.4515 0.0262983
260.7919 0.0262987
261.1331 0.0262992
261.477 0.0262996
261.8186 0.0262998
262.1581 0.0262998
262.4987 0.0263004
262.8404 0.0263004
263.185 0.026301
263.5283 0.0263013
263.8687 0.0263014
264.2111 0.0263017
264.5525 0.0263019
264.8928 0.026302
265.2377 0.0263021
265.5803 0.0263024
265.9198 0.0263025
266.2591 0.0263025
266.6017 0.0263029
266.9444 0.0263033
267.2854 0.0263033
267.6279 0.0263039
267.9678 0.0263045
268.3105 0.0263046
268.6529 0.0263053
269.3971 0.0263061
269.7391 0.0263061
270.0791 0.0263061
270.4215 0.0263061
270.7639 0.0263061
271.1038 0.0263061
271.4447 0.0263061
271.7857 0.0263064
272.1279 0.0263065
272.4681 0.0263065
272.8098 0.0263065
273.1506 0.0263064
273.4924 0.0263059
273.8332 0.0263053
274.1732 0.0263053
274.5157 0.0263053
274.8562 0.0263053
275.1964 0.0263053
275.5372 0.0263053
275.8785 0.0263052
276.2208 0.0263051
276.563 0.0263051
276.9037 0.0263052
277.2447 0.0263053
277.5859 0.0263054
277.926 0.0263054
278.2682 0.026306
278.6101 0.026306
278.9501 0.026306
279.2905 0.0263064
279.631 0.0263066
279.9731 0.0263067
280.3153 0.0263069
280.6548 0.0263071
280.9962 0.0263072
281.3376 0.0263071
281.6772 0.0263071
282.0204 0.0263071
282.3622 0.0263072
282.7045 0.0263076
283.0447 0.0263076
283.3859 0.026308
283.7276 0.0263081
284.0706 0.0263082
284.4132 0.0263082
285.1572 0.0263082
285.4979 0.0263082
285.84 0.0263082
286.1825 0.026308
286.5253 0.026308
286.8675 0.0263076
287.2096 0.0263072
287.5513 0.0263071
287.8924 0.0263066
288.2323 0.0263059
288.5735 0.0263055
288.9152 0.0263047
289.2566 0.0263044
289.6039 0.026304
289.9462 0.026304
290.2873 0.026304
290.6272 0.026304
290.9693 0.026303
291.3111 0.0263025
291.6521 0.0263023
291.9929 0.0263023
292.3345 0.0263024
292.6742 0.0263026
293.0154 0.0263031
293.3573 0.0263036
293.6992 0.0263037
294.0413 0.0263039
294.384 0.0263041
294.7262 0.0263043
295.0691 0.0263044
295.4091 0.0263044
295.751 0.0263044
296.0932 0.0263047
296.4334 0.0263054
296.7744 0.0263054
297.117 0.0263058
297.4576 0.0263064
297.7993 0.0263069
298.1414 0.0263069
298.4884 0.026307
298.8295 0.026307
299.1709 0.0263074
299.5134 0.0263077
299.8532 0.0263077
300.1939 0.0263077
300.9378 0.0263078
301.2779 0.0263078
301.6192 0.0263078
301.9598 0.0263078
302.3003 0.0263078
302.6421 0.0263077
302.9851 0.0263077
303.3251 0.0263077
303.6665 0.0263074
304.0076 0.0263073
304.3488 0.0263066
304.6888 0.0263062
305.0299 0.026306
305.3719 0.026305
305.7112 0.026305
306.0534 0.026305
306.3938 0.026305
306.7354 0.0263042
307.0782 0.0263042
307.423 0.0263042
307.7658 0.0263042
308.1085 0.0263046
308.4506 0.0263054
308.7927 0.0263058
309.1344 0.026306
309.4759 0.0263062
309.8155 0.0263067
310.158 0.0263076
310.4996 0.0263083
310.8418 0.0263087
311.1833 0.0263092
311.5244 0.0263097
311.8659 0.0263103
312.2083 0.0263111
312.5479 0.0263112
312.89 0.0263113
313.2314 0.0263118
313.5727 0.0263125
313.9157 0.0263131
314.2578 0.0263131
314.6 0.0263135
314.94 0.0263135
315.2815 0.0263135
315.6239 0.0263135
315.9662 0.0263135
316.7098 0.0263137
317.0504 0.0263136
317.3917 0.0263136
317.7335 0.0263134
318.0764 0.0263131
318.419 0.0263128
318.7593 0.0263125
319.1015 0.0263121
319.4436 0.026312
319.7855 0.0263118
320.1276 0.0263109
320.4713 0.0263106
320.8112 0.0263106
321.1534 0.0263102
321.4961 0.0263097
321.836 0.0263097
322.1778 0.0263097
322.5172 0.0263097
322.8591 0.0263097
323.2011 0.0263097
323.5422 0.0263097
323.8851 0.0263102
324.2301 0.0263102
324.571 0.0263106
324.9117 0.0263111
325.2541 0.0263113
325.5968 0.0263114
325.9393 0.0263114
326.28 0.0263115
326.6223 0.0263118
326.9641 0.0263118
327.3047 0.026312
327.6454 0.0263121
327.9877 0.0263121
328.3304 0.0263123
328.6724 0.0263125
329.0128 0.0263125
329.3541 0.0263125
329.6962 0.0263126
330.0376 0.0263126
330.3787 0.0263129
330.7196 0.0263131
331.0615 0.0263133
331.4021 0.0263134
331.7438 0.0263136
332.4876 0.0263138
332.8296 0.0263138
333.1707 0.0263138
333.5115 0.0263138
333.8532 0.0263138
334.1957 0.0263138
334.5364 0.0263138
334.8791 0.0263138
335.2198 0.0263138
335.5622 0.0263137
335.902 0.0263131
336.2419 0.0263127
336.5837 0.0263127
336.9248 0.0263122
337.2649 0.0263114
337.6051 0.0263109
337.9456 0.0263109
338.2869 0.0263109
338.6272 0.0263109
338.9688 0.0263109
339.3098 0.0263109
339.6534 0.026311
339.9956 0.026311
340.3363 0.0263114
340.6767 0.0263122
341.0163 0.0263127
341.3589 0.0263127
341.7016 0.0263128
342.044 0.0263128
342.424 0.0263128
342.7658 0.0263129
343.1063 0.0263131
343.4495 0.0263133
343.7916 0.0263136
344.1319 0.0263139
344.4738 0.0263144
344.816 0.0263148
345.1588 0.0263151
345.5017 0.0263158
345.8446 0.0263167
346.1868 0.026317
346.5262 0.0263171
346.8672 0.0263174
347.2077 0.0263176
347.5501 0.0263178
348.2954 0.0263178
348.6352 0.0263178
348.9771 0.0263178
349.3178 0.0263178
349.6581 0.0263176
349.9979 0.0263176
350.3383 0.0263174
350.6806 0.0263174
351.0229 0.0263173
351.3647 0.0263169
351.7047 0.0263173
352.0449 0.0263169
352.3863 0.0263164
352.7269 0.0263164
353.0674 0.0263162
353.4094 0.0263156
353.7504 0.0263149
354.0935 0.0263147
354.432 0.0263144
354.7732 0.0263144
355.1148 0.0263144
355.4555 0.0263147
355.7965 0.0263149
356.1385 0.0263156
356.4805 0.0263162
356.8224 0.0263164
357.1632 0.0263167
357.5049 0.0263167
357.846 0.0263172
358.1879 0.0263176
358.528 0.0263174
358.869 0.0263174
359.2104 0.0263174
359.5523 0.0263176
359.8912 0.0263179
360.2323 0.0263179
360.5737 0.0263179
360.9153 0.0263179
361.3306 0.0263182
361.6729 0.0263185
362.0137 0.0263185
362.3543 0.0263185
362.6953 0.0263185
363.0359 0.0263183
363.3775 0.0263181
364.1227 0.0263179
364.4651 0.0263176
364.8055 0.0263176
365.1454 0.0263174
365.4874 0.026317
365.8283 0.0263166
366.1687 0.0263166
366.5113 0.0263166
366.853 0.0263164
367.1927 0.0263164
367.532 0.0263163
367.8727 0.0263162
368.2139 0.0263162
368.5553 0.0263155
368.8967 0.0263152
369.2361 0.0263152
369.5784 0.0263152
369.9205 0.0263152
370.2625 0.0263152
370.6039 0.0263152
370.9444 0.0263152
371.2866 0.0263157
371.6287 0.026316
371.9716 0.0263162
372.3131 0.0263163
372.6584 0.0263169
386.3461 0.0263175
395.1688 0.0263177