File: adquisiciones/GaN uvvis/subidas/340.txt
34.97314 0.0259396
35.31629 0.0259407
35.65743 0.025941
35.99827 0.0259413
36.34259 0.0259414
36.68498 0.0259419
37.03114 0.0259423
37.3727 0.025943
37.71408 0.0259435
38.05655 0.0259437
38.39995 0.0259439
38.74499 0.0259441
39.08801 0.0259441
39.43055 0.0259441
39.77295 0.0259441
40.11403 0.0259441
40.45607 0.0259441
40.79848 0.0259441
41.14079 0.0259441
41.48352 0.0259441
41.82492 0.025944
42.16797 0.0259436
42.51093 0.0259422
42.85408 0.0259404
43.19735 0.0259398
43.54399 0.0259391
43.88439 0.0259379
44.22867 0.0259367
44.57121 0.025936
44.9144 0.0259359
45.25652 0.0259358
45.59932 0.0259355
45.94138 0.0259351
46.28412 0.0259344
46.62817 0.0259339
46.96852 0.0259337
47.31115 0.0259337
48.05594 0.0259335
48.39858 0.025933
48.74088 0.0259326
49.08382 0.0259326
49.42741 0.0259323
49.76828 0.0259309
50.11223 0.0259295
50.4525 0.0259289
50.79469 0.0259283
51.13769 0.0259277
51.47899 0.0259241
51.81956 0.0259206
52.16343 0.0259203
52.50646 0.0259203
52.84892 0.0259203
53.19294 0.0259202
53.5382 0.0259202
53.88048 0.0259202
54.22154 0.0259202
54.5628 0.0259202
54.90617 0.0259201
55.24813 0.0259201
55.58891 0.0259201
55.93325 0.0259201
56.27757 0.0259201
56.61648 0.0259201
56.96176 0.0259197
57.30457 0.0259193
57.64666 0.025919
57.99014 0.025919
58.33272 0.0259189
58.67819 0.0259183
59.02132 0.0259174
59.36285 0.0259165
59.7047 0.0259161
60.0446 0.0259146
60.38641 0.0259132
60.72968 0.0259124
61.07186 0.0259117
61.41294 0.0259113
61.75333 0.0259108
62.09636 0.0259106
62.43873 0.0259106
62.78211 0.0259106
63.12573 0.0259106
63.87115 0.0259106
64.21374 0.0259106
64.55477 0.0259106
64.89769 0.0259101
65.2416 0.0259096
65.58435 0.0259094
65.92523 0.0259093
66.26663 0.0259091
66.60864 0.0259089
66.94949 0.0259087
67.29415 0.0259065
67.63651 0.0259044
67.97956 0.0259044
68.32312 0.0259042
68.66473 0.025904
69.00844 0.0259036
69.35139 0.025903
69.69528 0.0259025
70.03711 0.0259025
70.3813 0.0259025
70.7231 0.0259025
71.06495 0.0259028
71.40688 0.0259028
71.74775 0.0259028
72.09138 0.0259025
72.4351 0.0259025
72.77689 0.0259021
73.11838 0.0259017
73.46104 0.0259017
73.80402 0.025902
74.14654 0.0259021
74.48892 0.0259019
74.82972 0.0259019
75.17106 0.0259019
75.51292 0.0259017
75.85307 0.0259017
76.19873 0.0259015
76.5439 0.0259015
76.88717 0.0259015
77.22833 0.0259011
77.57043 0.0259008
77.91326 0.0259008
78.2562 0.0259008
78.59787 0.0259008
78.93973 0.0259008
79.68481 0.0259008
80.02813 0.0259008
80.37003 0.0259008
80.71595 0.0259004
81.06193 0.0259004
81.40979 0.0259004
81.75249 0.0259004
82.09513 0.0259004
82.43764 0.0259005
82.7803 0.0259008
83.12125 0.0259008
83.4649 0.0259013
83.80724 0.0259013
84.14959 0.0259016
84.49044 0.0259046
84.83279 0.0259072
85.17803 0.0259077
85.51902 0.025908
85.86241 0.0259083
86.205 0.0259086
86.54641 0.0259092
86.88899 0.0259111
87.23115 0.0259127
87.57329 0.025913
87.91589 0.0259132
88.26128 0.0259137
88.6042 0.0259141
88.94487 0.0259147
89.28562 0.0259158
89.62858 0.0259168
89.97114 0.0259175
90.31298 0.0259184
90.65654 0.0259198
90.99787 0.0259206
91.3413 0.0259209
91.6826 0.0259216
92.02417 0.0259225
92.36503 0.0259232
92.70811 0.0259241
93.04831 0.0259262
93.39779 0.0259288
93.73891 0.0259303
94.08093 0.0259312
94.42454 0.0259325
94.76629 0.0259337
95.51244 0.0259343
95.85486 0.0259343
96.19725 0.0259343
96.54258 0.0259343
96.88556 0.0259343
97.22828 0.0259347
97.57467 0.0259347
97.91694 0.0259356
98.26059 0.025937
98.60343 0.025938
98.94634 0.0259388
99.29002 0.0259395
99.63062 0.02594
99.97076 0.0259408
100.3136 0.0259416
100.656 0.0259427
100.9967 0.0259439
101.338 0.025946
101.6809 0.0259482
102.0247 0.0259486
102.3656 0.0259492
102.7104 0.0259499
103.0515 0.0259504
103.3955 0.0259508
103.7415 0.0259511
104.0833 0.0259517
104.4267 0.0259525
104.7681 0.0259535
105.1097 0.0259546
105.4515 0.0259559
105.7929 0.025957
106.1331 0.0259581
106.4769 0.0259592
106.8205 0.0259609
107.1649 0.0259624
107.5085 0.0259626
107.8522 0.0259632
108.1946 0.0259636
108.5357 0.0259652
108.8806 0.0259669
109.2223 0.025967
109.5639 0.0259673
109.9054 0.0259676
110.2486 0.025968
110.5913 0.0259693
111.336 0.0259707
111.6812 0.0259707
112.0235 0.0259707
112.3652 0.0259707
112.7079 0.0259707
113.0483 0.0259713
113.3912 0.0259716
113.7321 0.0259718
114.0742 0.025972
114.4171 0.0259722
114.7586 0.0259729
115.1003 0.0259734
115.4445 0.0259735
115.7849 0.0259736
116.1256 0.025974
116.466 0.0259746
116.8384 0.0259753
117.1803 0.0259757
117.5231 0.0259766
117.8667 0.0259775
118.2088 0.0259779
118.5498 0.0259788
118.8906 0.0259794
119.2332 0.0259795
119.5747 0.0259803
119.9168 0.0259835
120.2575 0.025986
120.6049 0.0259861
120.947 0.0259864
121.2891 0.0259866
121.6291 0.0259868
121.9696 0.0259878
122.3143 0.025989
122.6538 0.0259902
122.9947 0.0259914
123.3362 0.0259918
123.6783 0.0259923
124.0204 0.0259933
124.3601 0.025994
124.7026 0.0259947
125.0415 0.0259954
125.382 0.0259959
125.7238 0.0259964
126.0658 0.0259973
126.4055 0.0259983
127.1492 0.025999
127.4921 0.025999
127.8347 0.025999
128.1783 0.025999
128.5204 0.025999
128.8616 0.025999
129.2016 0.0259991
129.542 0.0259991
129.8828 0.0259987
130.2241 0.0259987
130.5644 0.0259987
130.9048 0.0259987
131.2449 0.0259986
131.5881 0.0259986
131.9299 0.0259987
132.2708 0.0259987
132.6113 0.0259993
132.9517 0.0259999
133.2927 0.0260001
133.6354 0.0260001
133.9753 0.0260003
134.3165 0.0260011
134.6595 0.0260015
135.0005 0.026002
135.3423 0.0260025
135.6867 0.0260028
136.03 0.0260029
136.3714 0.026003
136.7131 0.0260031
137.054 0.0260032
137.3968 0.0260042
137.737 0.0260059
138.0781 0.0260069
138.4183 0.0260073
138.7606 0.0260089
139.103 0.0260102
139.4443 0.0260109
139.7866 0.0260119
140.1287 0.0260124
140.4711 0.0260128
140.8116 0.0260133
141.1538 0.0260135
141.4937 0.0260137
141.8342 0.0260139
142.1764 0.026014
142.9226 0.0260142
143.2651 0.0260142
143.6066 0.0260142
143.9491 0.0260142
144.2906 0.0260142
144.6336 0.0260142
144.9755 0.0260142
145.3161 0.0260142
145.6571 0.026014
145.9975 0.0260142
146.3372 0.0260146
146.6822 0.0260149
147.0251 0.0260149
147.3702 0.0260145
147.7121 0.0260145
148.0569 0.0260145
148.399 0.0260151
148.7412 0.0260153
149.0822 0.0260162
149.4223 0.0260167
149.7637 0.026018
150.1084 0.0260185
150.451 0.0260193
150.7934 0.02602
151.1336 0.0260206
151.4761 0.0260212
151.817 0.0260216
152.159 0.026022
152.4991 0.0260227
152.8402 0.0260244
153.1823 0.0260258
153.5248 0.0260258
153.8656 0.0260258
154.2079 0.0260258
154.549 0.0260258
154.8897 0.0260258
155.2318 0.0260261
155.5733 0.0260263
155.9156 0.0260266
156.2589 0.0260271
156.6006 0.0260274
156.9407 0.0260275
157.2828 0.0260277
157.6231 0.0260282
157.966 0.0260287
158.7118 0.026029
159.0522 0.026029
159.3968 0.0260289
159.7388 0.026028
160.0822 0.0260271
160.4238 0.0260265
160.7658 0.0260266
161.1081 0.0260266
161.4522 0.0260266
161.7941 0.0260276
162.138 0.0260282
162.4775 0.0260282
162.8196 0.0260282
163.1598 0.0260281
163.502 0.0260285
163.845 0.0260288
164.1844 0.0260288
164.5247 0.0260288
164.867 0.0260288
165.2088 0.0260288
165.5533 0.0260288
165.898 0.0260293
166.2379 0.02603
166.5795 0.0260309
166.9195 0.0260309
167.2611 0.0260311
167.6023 0.0260313
167.9426 0.0260315
168.285 0.0260316
168.6279 0.0260318
168.9699 0.0260321
169.3098 0.0260323
169.6503 0.0260325
169.9928 0.0260325
170.3338 0.0260328
170.6761 0.0260329
171.0164 0.0260329
171.3568 0.0260331
171.6993 0.0260333
172.041 0.0260333
172.382 0.0260333
172.7219 0.0260335
173.0617 0.0260335
173.4019 0.0260339
173.7442 0.0260341
174.4746 0.0260345
174.8171 0.0260345
175.1581 0.0260345
175.5005 0.0260345
175.8413 0.0260341
176.1811 0.0260339
176.5227 0.0260335
176.8643 0.0260331
177.2056 0.0260331
177.5481 0.0260333
177.8888 0.0260333
178.2331 0.0260338
178.5753 0.0260338
178.916 0.026034
179.2582 0.0260347
179.5986 0.0260347
179.939 0.026034
180.2819 0.0260335
180.6241 0.0260335
180.9646 0.0260335
181.3039 0.0260335
181.6461 0.026034
181.987 0.0260347
182.3279 0.0260362
182.6688 0.026037
183.0109 0.0260371
183.3538 0.0260375
183.6964 0.0260391
184.0387 0.0260404
184.3795 0.0260407
184.7207 0.0260414
185.0627 0.0260419
185.4055 0.0260424
185.7481 0.0260424
186.0914 0.0260428
186.4343 0.0260429
186.7754 0.0260431
187.1171 0.0260434
187.4577 0.0260439
187.8 0.0260445
188.1407 0.0260449
188.4822 0.0260451
188.8256 0.0260452
189.1657 0.0260456
189.5078 0.026046
190.2536 0.0260461
190.5964 0.0260461
190.9361 0.0260461
191.2759 0.0260461
191.6163 0.0260461
191.9585 0.0260461
192.3003 0.0260461
192.6422 0.0260455
192.9863 0.0260458
193.3282 0.0260463
193.6692 0.0260467
194.0096 0.0260467
194.3523 0.0260463
194.6946 0.026047
195.0343 0.026047
195.3754 0.0260469
195.7201 0.0260469
196.06 0.0260469
196.3999 0.0260469
196.7407 0.0260469
197.0834 0.0260469
197.426 0.0260474
197.7683 0.0260477
198.111 0.026048
198.4531 0.026048
198.795 0.026048
199.1398 0.026048
199.4823 0.026048
199.8222 0.026048
200.1621 0.026048
200.5026 0.026048
200.8452 0.0260477
201.1868 0.0260477
201.5293 0.0260472
201.8729 0.0260472
202.2148 0.0260469
202.5564 0.0260469
202.9006 0.0260468
203.2412 0.0260466
203.5856 0.0260461
203.9256 0.026046
204.2691 0.0260457
204.6131 0.0260457
204.9528 0.0260457
205.2932 0.0260457
206.0379 0.0260455
206.3787 0.0260452
206.7216 0.026045
207.0621 0.0260446
207.4022 0.0260446
207.7446 0.0260443
208.0864 0.0260443
208.4292 0.0260443
208.771 0.0260439
209.1133 0.0260439
209.4555 0.0260439
209.7949 0.0260439
210.1357 0.0260442
210.4767 0.0260442
210.8193 0.0260442
211.1601 0.0260442
211.501 0.0260451
211.8424 0.0260456
212.1833 0.0260456
212.5239 0.0260456
212.8659 0.026046
213.2057 0.0260462
213.5492 0.0260468
213.8924 0.0260475
214.2346 0.0260478
214.5764 0.0260485
214.9169 0.0260491
215.2612 0.0260491
215.6041 0.0260493
215.9439 0.0260496
216.2844 0.02605
216.6272 0.0260502
216.9683 0.0260503
217.3088 0.0260504
217.6491 0.0260507
217.9905 0.0260511
218.3311 0.0260512
218.6732 0.0260516
219.0139 0.026052
219.3554 0.0260522
219.6997 0.0260524
220.0417 0.0260525
220.3849 0.0260527
220.7268 0.0260527
221.0693 0.0260529
221.8153 0.026053
222.1561 0.026053
222.4983 0.026053
222.8368 0.026053
223.1783 0.026053
223.5198 0.026053
223.8602 0.026053
224.2022 0.026053
224.5466 0.026053
224.8869 0.0260527
225.2298 0.0260521
225.5716 0.0260514
225.9121 0.0260506
226.2542 0.0260503
226.595 0.0260503
226.9359 0.0260503
227.2762 0.0260503
227.6187 0.0260503
227.9613 0.0260503
228.3037 0.0260503
228.646 0.0260503
228.9877 0.0260503
229.3284 0.0260503
229.6703 0.0260507
230.0135 0.0260508
230.3557 0.026051
230.6963 0.0260512
231.0383 0.0260514
231.3808 0.0260515
231.7212 0.0260519
232.061 0.0260524
232.4043 0.0260529
232.7461 0.0260535
233.0865 0.0260537
233.4272 0.0260539
233.7691 0.0260541
234.1095 0.0260541
234.4495 0.0260541
234.7906 0.026054
235.1295 0.0260541
235.4713 0.0260541
235.8122 0.0260541
236.1543 0.0260541
236.4947 0.0260542
236.8368 0.0260542
237.5804 0.0260544
237.9238 0.0260542
238.2667 0.0260542
238.6098 0.0260542
238.9527 0.0260542
239.2947 0.0260542
239.6366 0.0260541
239.9786 0.0260538
240.3213 0.0260532
240.663 0.0260528
241.0444 0.0260528
241.387 0.0260528
241.7264 0.0260528
242.0692 0.0260532
242.4092 0.0260532
242.7498 0.0260538
243.0899 0.0260538
243.4304 0.0260542
243.7702 0.0260542
244.1141 0.0260535
244.4562 0.0260535
244.7962 0.0260542
245.1379 0.0260546
245.4808 0.0260547
245.8208 0.0260547
246.1652 0.0260547
246.5059 0.0260548
246.8464 0.026055
247.1878 0.0260556
247.5284 0.026056
247.8712 0.0260557
248.2133 0.0260557
248.5542 0.0260557
248.8943 0.0260559
249.2323 0.026056
249.575 0.026056
249.9168 0.0260561
250.2593 0.0260561
250.6 0.0260562
250.9398 0.0260563
251.2819 0.0260563
251.6252 0.0260563
251.966 0.0260563
252.3084 0.0260565
252.6484 0.0260568
253.3928 0.0260569
253.7338 0.0260568
254.0739 0.0260565
254.4143 0.0260565
254.7579 0.0260563
255.0991 0.0260563
255.4411 0.0260563
255.7823 0.026056
256.124 0.0260557
256.4648 0.0260557
256.8069 0.0260559
257.1489 0.0260555
257.4896 0.0260559
257.8318 0.0260559
258.1736 0.0260559
258.5147 0.0260559
258.8546 0.0260559
259.1961 0.0260559
259.5386 0.0260559
259.8784 0.0260559
260.22 0.0260559
260.5626 0.0260575
260.9033 0.0260597
261.2453 0.026061
261.5899 0.0260617
261.9303 0.0260626
262.2708 0.0260629
262.6109 0.0260634
262.9526 0.0260637
263.2957 0.0260639
263.6384 0.026064
263.9779 0.0260642
264.3199 0.0260644
264.6626 0.0260649
265.0039 0.0260652
265.3439 0.0260653
265.6851 0.0260656
266.0257 0.0260658
266.3679 0.0260667
266.708 0.0260674
267.0485 0.0260674
267.3895 0.0260674
267.7284 0.0260674
268.0703 0.0260674
268.4142 0.0260674
269.1586 0.0260674
269.4997 0.0260674
269.84 0.0260674
270.1804 0.0260674
270.5223 0.0260671
270.8648 0.0260669
271.2059 0.0260667
271.5491 0.026066
271.8913 0.0260653
272.2311 0.0260648
272.5731 0.0260642
272.9128 0.0260635
273.2551 0.0260631
273.5966 0.0260629
273.939 0.0260628
274.2798 0.0260628
274.6219 0.0260628
274.9615 0.0260628
275.3026 0.0260627
275.6429 0.0260625
275.9831 0.0260625
276.3241 0.0260627
276.6648 0.0260628
277.0061 0.0260628
277.3465 0.0260629
277.6888 0.026063
278.0291 0.0260633
278.3704 0.0260633
278.7111 0.0260633
279.0519 0.0260633
279.3923 0.0260633
279.7343 0.0260636
280.075 0.026064
280.415 0.0260642
280.7549 0.0260644
281.0968 0.0260645
281.4369 0.0260643
281.7769 0.0260642
282.1195 0.0260642
282.4613 0.0260644
282.8017 0.0260647
283.1422 0.0260644
283.485 0.0260647
283.8278 0.0260648
284.1703 0.0260648
284.915 0.0260648
285.2554 0.0260647
285.5975 0.0260647
285.9379 0.0260647
286.28 0.0260647
286.6228 0.0260647
286.9643 0.0260645
287.3052 0.026064
287.6473 0.0260635
287.9892 0.0260635
288.3288 0.0260635
288.671 0.0260633
289.013 0.0260635
289.3529 0.0260638
289.6939 0.0260638
290.0345 0.0260638
290.374 0.0260638
290.7135 0.0260638
291.054 0.0260635
291.3943 0.0260631
291.7361 0.0260628
292.0784 0.0260631
292.4188 0.0260635
292.7604 0.0260638
293.1013 0.0260638
293.4422 0.0260639
293.784 0.0260641
294.1256 0.0260642
294.4648 0.0260643
294.8058 0.0260644
295.1488 0.0260645
295.4906 0.0260647
295.831 0.0260647
296.1733 0.0260647
296.5176 0.0260649
296.8579 0.0260651
297.1992 0.0260651
297.5417 0.0260651
297.8834 0.0260651
298.2239 0.0260651
298.5648 0.0260651
298.905 0.0260649
299.2471 0.0260648
299.5892 0.0260651
299.9284 0.0260651
300.6741 0.0260645
301.0159 0.0260639
301.3573 0.0260637
301.6973 0.0260636
302.0394 0.0260634
302.3811 0.0260632
302.7205 0.0260629
303.0626 0.0260627
303.4049 0.0260626
303.7452 0.0260624
304.0872 0.0260602
304.43 0.0260591
304.7727 0.0260591
305.1168 0.0260591
305.4573 0.0260591
305.799 0.0260591
306.1388 0.0260591
306.48 0.0260591
306.8228 0.0260591
307.1639 0.0260591
307.5063 0.0260591
307.8481 0.0260603
308.1897 0.0260607
308.5301 0.026061
308.8722 0.026061
309.2129 0.026061
309.5539 0.0260615
309.8945 0.0260621
310.2376 0.0260625
310.5803 0.0260625
310.9236 0.0260626
311.2659 0.0260627
311.6084 0.0260629
311.9495 0.026063
312.2918 0.026063
312.6333 0.026063
312.9762 0.0260631
313.3204 0.0260635
313.6603 0.0260637
314.0026 0.0260637
314.3447 0.026064
314.6852 0.0260644
315.027 0.0260647
315.3679 0.0260651
315.7093 0.0260655
316.4531 0.0260661
316.7946 0.0260661
317.135 0.0260661
317.4767 0.0260661
317.8171 0.0260661
318.1568 0.0260661
318.499 0.0260661
318.8401 0.0260661
319.1804 0.0260663
319.5234 0.0260666
319.8654 0.0260667
320.2066 0.0260667
320.5467 0.0260667
320.8868 0.0260667
321.2288 0.0260667
321.5687 0.0260667
321.9091 0.0260667
322.251 0.0260667
322.591 0.0260666
322.9325 0.0260666
323.2752 0.0260666
323.6179 0.0260668
323.9576 0.0260674
324.2983 0.0260681
324.6393 0.0260681
324.9817 0.0260681
325.3252 0.0260681
325.6675 0.0260681
326.0096 0.0260681
326.3519 0.0260687
326.6939 0.0260692
327.0341 0.0260695
327.379 0.0260695
327.7186 0.0260697
328.0588 0.02607
328.4012 0.0260703
328.743 0.0260704
329.0824 0.0260705
329.4244 0.0260705
329.7645 0.0260706
330.1048 0.0260706
330.4478 0.0260706
330.7903 0.0260707
331.1322 0.0260715
331.4723 0.0260722
332.2175 0.0260722
332.559 0.0260722
332.8998 0.0260722
333.2423 0.0260722
333.584 0.0260722
333.9262 0.0260722
334.2695 0.0260715
334.611 0.0260707
334.9517 0.0260705
335.294 0.0260701
335.6361 0.026069
335.976 0.0260677
336.3163 0.0260668
336.6575 0.0260661
336.9991 0.0260658
337.3423 0.0260656
337.6848 0.0260649
338.03 0.026064
338.3707 0.026064
338.712 0.026064
339.0534 0.026064
339.3929 0.026064
339.7344 0.026064
340.0738 0.026064
340.4164 0.026064
340.759 0.026064
341.1011 0.0260644
341.4409 0.0260644
341.7829 0.0260644
342.1242 0.0260644
342.4666 0.0260644
342.8095 0.0260644
343.1503 0.0260648
343.4925 0.0260651
343.8319 0.0260655
344.1724 0.0260669
344.515 0.0260682
344.8575 0.0260687
345.1987 0.0260693
345.5391 0.0260693
345.8798 0.0260693
346.2212 0.0260693
346.5611 0.0260693
346.9022 0.0260693
347.2426 0.0260693
347.9883 0.0260693
348.3315 0.0260693
348.6723 0.0260691
349.0146 0.0260691
349.3555 0.0260689
349.6986 0.0260686
350.0417 0.0260681