File: adquisiciones/GaN uvvis/subidas/340_uv.txt
34.98861 0.0257914
35.3301 0.0257914
35.67043 0.0257858
36.01282 0.0257801
36.35526 0.0257801
36.69653 0.0257798
37.04038 0.0257797
37.38208 0.0257793
37.72207 0.0257793
38.06292 0.0257792
38.40837 0.0257792
38.75032 0.0257792
39.09127 0.0257792
39.43552 0.0257794
39.77735 0.0257794
40.11988 0.0257794
40.46437 0.0257794
40.80559 0.0257792
41.14614 0.0257792
41.48807 0.025779
41.83047 0.025779
42.17283 0.025779
42.51489 0.025779
42.85769 0.0257789
43.1994 0.0257784
43.5424 0.0257778
43.88309 0.0257771
44.22566 0.0257762
44.57126 0.0257755
44.91449 0.0257746
45.25577 0.0257738
45.5977 0.0257733
45.93998 0.0257728
46.28299 0.025772
46.62594 0.0257715
46.97023 0.0257713
47.31003 0.0257712
48.05618 0.0257708
48.39852 0.0257701
48.74138 0.0257696
49.08393 0.0257693
49.42605 0.025769
49.77006 0.0257687
50.11173 0.0257684
50.45671 0.0257681
50.79771 0.0257679
51.13815 0.0257676
51.47886 0.0257641
51.82339 0.0257605
52.16625 0.0257598
52.50879 0.0257595
52.8547 0.0257595
53.19594 0.0257595
53.53991 0.0257595
53.88259 0.0257595
54.22513 0.0257595
54.56798 0.0257595
54.91129 0.0257595
55.25455 0.0257599
55.59814 0.0257601
55.94116 0.0257601
56.28378 0.0257601
56.62447 0.0257603
56.96774 0.0257606
57.30918 0.0257606
57.65276 0.0257607
57.99636 0.0257607
58.34074 0.0257608
58.68408 0.0257608
59.0273 0.0257608
59.37274 0.0257608
59.71584 0.0257608
60.05939 0.0257608
60.40224 0.0257604
60.74499 0.0257604
61.08593 0.0257599
61.4284 0.0257594
61.77005 0.0257589
62.11008 0.0257588
62.4532 0.0257586
62.79533 0.0257585
63.13833 0.0257582
63.88404 0.025758
64.22666 0.025758
64.57141 0.0257577
64.91415 0.0257572
65.25849 0.025757
65.60189 0.0257568
65.94477 0.0257564
66.28546 0.025756
66.62792 0.0257557
66.96999 0.0257544
67.31246 0.0257515
67.6538 0.0257495
67.99483 0.0257492
68.33849 0.0257491
68.67906 0.0257485
69.02037 0.0257478
69.36069 0.0257475
69.7047 0.0257474
70.04762 0.0257463
70.39196 0.025745
70.73501 0.0257449
71.07698 0.0257449
71.42155 0.0257449
71.76398 0.025745
72.10316 0.025745
72.44562 0.025745
72.78844 0.025745
73.13005 0.0257449
73.4715 0.0257449
73.81461 0.0257449
74.15923 0.0257449
74.50178 0.025745
74.84227 0.0257451
75.18618 0.0257451
75.52893 0.0257456
75.87374 0.025746
76.21663 0.0257465
76.56211 0.0257473
76.90441 0.0257477
77.24961 0.025748
77.59127 0.0257483
77.93455 0.0257486
78.27779 0.0257493
78.62397 0.025752
78.9671 0.0257574
79.71113 0.0257624
80.05416 0.0257681
80.39538 0.0257759
80.73661 0.0257822
81.07774 0.0257871
81.41996 0.0257922
81.76485 0.0257946
82.10754 0.0257987
82.45031 0.025806
82.79085 0.0258109
83.13117 0.0258129
83.47469 0.0258159
83.81842 0.0258219
84.16022 0.0258298
84.50388 0.0258382
84.84653 0.0258448
85.18835 0.0258505
85.531 0.0258569
85.87606 0.0258634
86.22008 0.0258677
86.56437 0.0258709
86.90754 0.0258751
87.24944 0.0258809
87.59247 0.025887
87.93989 0.0258917
88.28207 0.0258959
88.6236 0.0258992
88.9658 0.0259023
89.30696 0.025907
89.64793 0.0259117
89.98992 0.0259147
90.33041 0.0259181
90.67405 0.0259229
91.01406 0.0259268
91.35652 0.0259292
91.69751 0.0259329
92.0397 0.0259355
92.37976 0.0259376
92.72578 0.0259415
93.06706 0.0259448
93.40972 0.0259468
93.75114 0.02595
94.09236 0.0259532
94.43444 0.0259552
94.77485 0.0259575
95.5223 0.0259607
95.86645 0.0259607
96.21165 0.0259647
96.55711 0.0259672
96.89848 0.0259689
97.24217 0.0259702
97.58392 0.0259711
97.92652 0.0259742
98.26837 0.0259777
98.6114 0.025979
98.956 0.0259797
99.29813 0.0259806
99.63884 0.0259812
99.9788 0.025982
100.3216 0.0259838
100.6621 0.0259876
101.0066 0.0259922
101.3497 0.0259944
101.6919 0.0259959
102.0321 0.0259975
102.3763 0.0259996
102.7173 0.0260031
103.0595 0.0260068
103.4047 0.0260088
103.7497 0.0260107
104.0931 0.0260128
104.4335 0.026014
104.7745 0.0260161
105.116 0.0260173
105.4583 0.0260179
105.7989 0.0260193
106.1417 0.0260213
106.4823 0.0260238
106.8243 0.0260262
107.1669 0.026028
107.5077 0.0260301
107.8502 0.0260313
108.1932 0.0260314
108.5381 0.0260326
108.8805 0.0260353
109.2222 0.0260371
109.5634 0.0260381
109.9052 0.0260391
110.2478 0.0260402
110.5928 0.0260426
111.3382 0.0260442
111.6814 0.0260442
112.0244 0.0260442
112.3665 0.0260442
112.7074 0.0260451
113.047 0.0260462
113.3896 0.0260472
113.7319 0.026049
114.0745 0.0260505
114.4175 0.0260509
114.7597 0.026051
115.1007 0.0260511
115.4428 0.0260521
115.7851 0.0260533
116.1279 0.0260546
116.4703 0.0260559
116.8418 0.0260572
117.1846 0.0260588
117.5283 0.0260605
117.871 0.0260615
118.2151 0.0260618
118.5598 0.0260626
118.8999 0.0260641
119.2414 0.0260653
119.5824 0.0260663
119.9261 0.0260687
120.2664 0.0260707
120.6078 0.0260716
120.9495 0.0260725
121.2903 0.026073
121.6359 0.0260733
121.9762 0.0260742
122.3176 0.0260753
122.6595 0.026076
123.0036 0.0260769
123.346 0.0260778
123.6876 0.0260783
124.0318 0.0260788
124.3735 0.0260798
124.7135 0.0260807
125.055 0.0260809
125.3954 0.0260812
125.7377 0.0260816
126.0798 0.0260816
126.422 0.0260818
127.1656 0.0260818
127.5051 0.0260818
127.8458 0.0260818
128.1874 0.0260818
128.5272 0.0260818
128.87 0.0260818
129.2109 0.0260816
129.5513 0.0260811
129.8921 0.0260807
130.234 0.0260805
130.5755 0.0260805
130.9181 0.026081
131.2606 0.026081
131.6016 0.026081
131.9438 0.026081
132.2846 0.0260811
132.6258 0.0260811
132.9682 0.0260813
133.3104 0.0260823
133.6537 0.0260823
133.9944 0.0260825
134.3352 0.0260831
134.6778 0.0260841
135.0181 0.0260848
135.3595 0.0260851
135.7021 0.0260861
136.045 0.0260872
136.3848 0.0260884
136.7293 0.0260893
137.0723 0.0260896
137.4118 0.0260903
137.7537 0.0260908
138.0965 0.026091
138.4387 0.0260913
138.7832 0.0260918
139.1237 0.0260922
139.4659 0.0260927
139.8068 0.0260931
140.1467 0.0260932
140.4912 0.0260937
140.8344 0.0260944
141.1762 0.0260946
141.5187 0.026095
141.8596 0.0260958
142.2025 0.0260963
142.9473 0.0260966
143.2865 0.0260966
143.6286 0.0260966
143.9705 0.0260966
144.3104 0.0260966
144.6503 0.0260966
144.9925 0.0260966
145.3348 0.0260965
145.675 0.0260965
146.0152 0.0260965
146.3558 0.0260965
146.6966 0.0260965
147.0376 0.0260965
147.3784 0.026097
147.7195 0.026098
148.0609 0.0260983
148.4028 0.0260983
148.7468 0.0260983
149.0877 0.0260983
149.4286 0.0260983
149.7696 0.0260983
150.1098 0.0260985
150.4507 0.0260988
150.79 0.0260997
151.1334 0.0261006
151.474 0.0261012
151.814 0.0261019
152.1561 0.0261021
152.4984 0.0261023
152.8392 0.0261029
153.1802 0.0261043
153.5225 0.0261053
153.8646 0.0261059
154.2069 0.0261067
154.5496 0.0261071
154.89 0.0261074
155.2323 0.0261074
155.5752 0.0261076
155.918 0.0261078
156.2606 0.0261081
156.6006 0.0261086
156.9418 0.0261087
157.2845 0.026109
157.6262 0.0261091
157.9657 0.0261091
158.7108 0.0261091
159.0525 0.0261091
159.3935 0.026109
159.734 0.0261087
160.0756 0.0261084
160.4187 0.0261081
160.7609 0.0261077
161.102 0.0261076
161.4425 0.0261076
161.7849 0.0261076
162.1257 0.0261076
162.4667 0.0261076
162.8071 0.0261076
163.1479 0.0261075
163.49 0.0261073
163.8326 0.0261073
164.1724 0.0261073
164.5151 0.0261073
164.8562 0.0261073
165.1961 0.0261073
165.5365 0.0261073
165.8788 0.0261075
166.222 0.0261077
166.5648 0.0261079
166.9064 0.0261082
167.2477 0.0261088
167.5883 0.0261098
167.9308 0.0261104
168.2711 0.0261107
168.6105 0.0261112
168.9522 0.0261117
169.2935 0.0261118
169.636 0.0261118
169.9784 0.0261118
170.3182 0.0261118
170.657 0.0261118
170.9987 0.0261118
171.3398 0.026112
171.682 0.026112
172.0246 0.0261123
172.366 0.0261123
172.7068 0.0261123
173.0479 0.0261123
173.3904 0.0261123
173.73 0.0261123
174.4734 0.0261127
174.814 0.0261127
175.1562 0.0261127
175.4968 0.0261123
175.8381 0.0261118
176.1795 0.0261117
176.5216 0.0261111
176.8639 0.0261108
177.2041 0.0261108
177.5457 0.026111
177.8854 0.026111
178.2256 0.026111
178.5674 0.0261108
178.907 0.0261108
179.2471 0.0261108
179.5886 0.0261108
179.9303 0.0261108
180.2715 0.0261108
180.6131 0.0261108
180.9553 0.0261108
181.2969 0.0261108
181.6387 0.026111
181.9804 0.0261115
182.3202 0.0261122
182.6587 0.0261127
182.9989 0.026113
183.3391 0.0261135
183.6814 0.0261138
184.0237 0.026115
184.3661 0.0261161
184.7084 0.0261163
185.0488 0.0261166
185.39 0.026117
185.7322 0.0261178
186.0713 0.0261182
186.4129 0.0261185
186.7537 0.026119
187.0967 0.0261197
187.4384 0.0261201
187.7791 0.0261206
188.1192 0.0261211
188.4606 0.0261211
188.8019 0.0261211
189.1432 0.0261211
189.4856 0.0261213
190.2304 0.0261214
190.5726 0.0261214
190.9149 0.0261214
191.2548 0.0261214
191.5965 0.0261214
191.9377 0.0261214
192.2797 0.0261214
192.6205 0.0261211
192.9622 0.0261208
193.3047 0.0261202
193.6445 0.0261195
193.9846 0.026119
194.3255 0.0261186
194.6674 0.0261183
195.0099 0.0261183
195.3526 0.0261183
195.6943 0.0261183
196.0345 0.0261183
196.3762 0.0261183
196.7158 0.0261183
197.0568 0.0261183
197.3966 0.0261185
197.7388 0.0261187
198.0797 0.0261194
198.4222 0.0261201
198.7642 0.0261201
199.1054 0.0261207
199.4467 0.0261216
199.7864 0.0261222
200.1285 0.0261226
200.471 0.026123
200.8119 0.0261236
201.154 0.026124
201.4981 0.0261242
201.8405 0.0261244
202.1828 0.0261246
202.5265 0.0261249
202.8707 0.0261249
203.2107 0.0261249
203.551 0.0261251
203.8932 0.0261253
204.236 0.0261254
204.5762 0.0261254
204.9162 0.0261254
205.2595 0.0261254
206.0039 0.0261253
206.3485 0.0261253
206.6908 0.0261253
207.0297 0.0261251
207.3712 0.0261249
207.7112 0.0261249
208.0534 0.0261246
208.3937 0.0261242
208.7344 0.0261229
209.0763 0.026121
209.4178 0.0261185
209.7593 0.0261166
210.1042 0.0261166
210.4464 0.0261166
210.7882 0.0261166
211.1301 0.0261166
211.4711 0.0261166
211.8118 0.0261166
212.154 0.0261166
212.4984 0.0261166
212.8409 0.0261166
213.1808 0.0261172
213.5219 0.0261183
213.8642 0.0261192
214.2065 0.0261193
214.5473 0.0261195
214.8873 0.0261196
215.2297 0.0261199
215.5726 0.0261204
215.9137 0.0261209
216.2546 0.0261214
216.5954 0.0261216
216.9365 0.0261216
217.2798 0.0261216
217.6229 0.0261222
217.9647 0.0261227
218.3044 0.0261228
218.645 0.0261228
218.9851 0.026123
219.3275 0.0261232
219.6694 0.0261232
220.0112 0.0261234
220.3514 0.0261238
220.6907 0.026124
221.0318 0.0261241
221.7743 0.0261242
222.114 0.0261241
222.4562 0.026124
222.7984 0.0261238
223.1397 0.0261238
223.4809 0.0261238
223.8224 0.0261234
224.1619 0.0261233
224.5033 0.026123
224.8433 0.026123
225.185 0.0261233
225.5279 0.026123
225.87 0.0261233
226.2104 0.0261233
226.5523 0.0261234
226.8948 0.0261235
227.2367 0.0261239
227.5788 0.0261239
227.9198 0.026124
228.2615 0.026124
228.6015 0.026124
228.9437 0.0261245
229.2838 0.026125
229.6264 0.0261258
229.9674 0.0261269
230.3089 0.0261276
230.6508 0.0261277
230.9912 0.026128
231.3326 0.0261284
231.6725 0.0261286
232.0143 0.026129
232.3536 0.026129
232.6957 0.0261292
233.0383 0.0261292
233.3794 0.0261293
233.7239 0.0261293
234.0643 0.0261292
234.4063 0.0261292
234.7478 0.0261292
235.0901 0.0261292
235.4318 0.0261292
235.7724 0.0261292
236.1153 0.0261292
236.4576 0.0261292
236.8 0.0261293
237.5449 0.0261294
237.886 0.0261293
238.2282 0.0261293
238.5701 0.0261292
238.91 0.0261292
239.2504 0.0261292
239.5926 0.0261292
239.9339 0.0261287
240.2745 0.026128
240.6143 0.0261278
240.9564 0.0261264
241.2987 0.026125
241.6385 0.0261235
241.9796 0.0261235
242.322 0.0261235
242.6612 0.0261235
243.0007 0.0261235
243.3456 0.0261235
243.6869 0.0261235
244.0272 0.0261235
244.3694 0.0261235
244.7104 0.026125
245.0526 0.0261251
245.3936 0.0261252
245.7352 0.0261254
246.0775 0.0261256
246.4174 0.0261256
246.76 0.0261256
247.1022 0.0261257
247.4435 0.0261259
247.7849 0.0261261
248.1241 0.0261261
248.4671 0.0261262
248.8083 0.0261264
249.1486 0.0261268
249.4885 0.0261268
249.8304 0.026128
250.1714 0.026129
250.5141 0.026129
250.8541 0.026129
251.1945 0.026129
251.5365 0.0261296
251.8781 0.0261301
252.22 0.0261303
252.5621 0.026131
253.3064 0.0261313
253.6474 0.0261313
253.9864 0.0261313
254.3291 0.0261313
254.6712 0.0261313
255.0111 0.0261313
255.3543 0.0261313
255.6955 0.0261313
256.0358 0.0261305
256.378 0.0261295
256.7202 0.0261267
257.0602 0.0261251
257.4002 0.0261251
257.7421 0.0261247
258.0831 0.0261247
258.426 0.0261247
258.7676 0.0261247
259.1104 0.0261247
259.452 0.0261247
259.7936 0.0261242
260.1354 0.0261242
260.4755 0.0261247
260.8171 0.0261252
261.1594 0.0261256
261.502 0.0261257
261.8435 0.0261258
262.186 0.0261262
262.5278 0.0261265
262.8697 0.026127
263.2125 0.0261273
263.5546 0.0261276
263.8953 0.0261279
264.2384 0.0261281
264.5806 0.026129
264.9214 0.0261301
265.2613 0.0261304
265.6031 0.0261307
265.9431 0.0261313
266.2836 0.0261313
266.6232 0.0261313
266.9649 0.0261314
267.3046 0.0261314
267.6452 0.0261315
267.9867 0.0261319
268.3263 0.0261319
269.07 0.0261315
269.4123 0.0261312
269.7537 0.0261312
270.0959 0.026131
270.4386 0.0261308
270.7792 0.0261305
271.1214 0.0261304
271.4617 0.0261304
271.8033 0.0261301
272.1465 0.0261295
272.4896 0.0261274
272.8296 0.0261259
273.1718 0.0261259
273.5137 0.0261259
273.854 0.0261259
274.1959 0.0261259
274.5379 0.0261259
274.88 0.0261259
275.2214 0.0261259
275.562 0.0261259
275.9048 0.0261259
276.2468 0.0261273
276.5864 0.0261286
276.9289 0.0261288
277.2708 0.0261292
277.6122 0.0261292
277.954 0.0261295
278.2973 0.0261296
278.639 0.0261296
278.9795 0.0261297
279.3216 0.0261297
279.6625 0.0261297
280.0035 0.0261297
280.346 0.0261297
280.6889 0.0261296
281.0315 0.0261296
281.3707 0.0261296
281.7107 0.0261295
282.0523 0.0261295
282.3925 0.0261296
282.7334 0.0261296
283.0756 0.0261296
283.4176 0.0261294
283.7568 0.0261293
284.0988 0.0261293
284.8411 0.0261293
285.1836 0.0261293
285.5261 0.0261291
285.8684 0.0261288
286.2086 0.0261286
286.549 0.0261283
286.8901 0.0261278
287.2322 0.0261278
287.5722 0.0261279
287.914 0.0261283
288.2557 0.026129
288.5988 0.026129
288.9396 0.0261293
289.2798 0.0261293
289.622 0.0261293
289.9617 0.0261295
290.3034 0.0261295
290.6439 0.0261298
290.9842 0.0261298
291.3276 0.0261301
291.6696 0.0261301
292.0112 0.0261304
292.3511 0.0261307
292.6922 0.0261307
293.0318 0.0261308
293.3726 0.0261308
293.7152 0.0261308
294.0584 0.0261309
294.4014 0.026131
294.7426 0.0261311
295.0838 0.026131
295.425 0.0261309
295.7663 0.0261308
296.1085 0.0261308
296.4482 0.0261308
296.7911 0.0261308
297.1327 0.0261308
297.4754 0.0261307
297.8183 0.0261308
298.1591 0.0261308
298.5012 0.0261308
298.8411 0.0261306
299.186 0.0261302
299.5286 0.02613
299.8695 0.02613
300.6141 0.02613
300.9564 0.0261299
301.2965 0.0261297
301.6386 0.0261296
301.9785 0.0261293
302.3187 0.0261289
302.6625 0.0261289
303.0029 0.0261288
303.3413 0.0261287
303.6834 0.0261277
304.0245 0.0261257
304.3648 0.0261246
304.7062 0.0261244
305.046 0.0261244
305.3875 0.0261241
305.7298 0.0261241
306.0711 0.0261241
306.4126 0.0261241
306.7558 0.0261241
307.0984 0.0261241
307.4398 0.0261241
307.7826 0.0261244
308.1256 0.0261246
308.466 0.0261252
308.8068 0.0261261
309.1457 0.0261263
309.4864 0.0261266
309.8265 0.0261267
310.1664 0.0261267
310.5072 0.0261267
310.8498 0.0261272
311.1918 0.0261275
311.5326 0.0261275
311.8734 0.0261276
312.2151 0.0261277
312.5569 0.0261278
312.898 0.0261278
313.2387 0.0261279
313.5792 0.0261282
313.9197 0.0261282
314.2616 0.0261282
314.6023 0.0261282
314.9425 0.0261279
315.2832 0.0261279
315.626 0.0261279
316.3699 0.0261283
316.7112 0.0261283
317.0517 0.0261283
317.3916 0.0261283
317.7336 0.0261283
318.0743 0.0261283
318.4162 0.0261279
318.7566 0.0261276
319.0978 0.0261269
319.4392 0.0261264
319.7797 0.0261262
320.1224 0.0261256
320.4645 0.0261256
320.805 0.0261256
321.1471 0.0261246
321.4887 0.0261242
321.8316 0.0261241
322.1729 0.0261241
322.5154 0.0261241
322.8572 0.0261241
323.1993 0.0261241
323.5409 0.0261242
323.8827 0.0261247
324.2248 0.0261252
324.5648 0.0261252
324.9067 0.0261252
325.2495 0.0261252
325.5898 0.0261256
325.9302 0.0261256
326.2723 0.026126
326.6159 0.0261263
326.9585 0.0261266
327.3013 0.0261264
327.6439 0.0261264
327.9856 0.0261269
328.3259 0.0261273
328.6676 0.0261273
329.0088 0.0261273
329.3497 0.0261273
329.6897 0.0261276
330.0312 0.0261282
330.3724 0.0261282
330.715 0.026129
331.0562 0.0261296
331.4 0.0261297
332.1442 0.02613
332.4866 0.02613
332.826 0.02613
333.1679 0.0261297
333.5075 0.0261296
333.8487 0.0261296
334.1893 0.0261296
334.5294 0.0261296
334.8711 0.026129
335.2116 0.0261282
335.5521 0.0261277
335.8944 0.0261266
336.2344 0.0261266
336.5764 0.0261266
336.9177 0.0261263
337.2583 0.0261263
337.5996 0.0261261
337.9417 0.0261261
338.2836 0.0261261
338.6238 0.0261259
338.9637 0.0261259
339.3062 0.0261261
339.6489 0.0261262
339.9914 0.0261263
340.3347 0.0261265
340.6771 0.0261267
341.0192 0.026127
341.3583 0.0261272
341.7002 0.0261273
342.0401 0.0261274
342.3814 0.0261279
342.7227 0.0261285
343.0626 0.0261286
343.4036 0.0261289
343.7439 0.0261293
344.0839 0.0261298
344.4264 0.0261298
344.7684 0.0261304
345.1092 0.0261309
345.4516 0.0261311
345.7926 0.0261314
346.1324 0.0261314
346.474 0.0261317
346.8139 0.0261321
347.1583 0.0261321
347.903 0.0261323
348.2446 0.0261323
348.5864 0.0261321
348.9286 0.0261321
349.2708 0.0261319
349.6147 0.0261316
349.9558 0.0261313