File: adquisiciones/GaN uvvis/subidas/360.txt
34.928 0.0258083
35.27145 0.0258082
35.61265 0.0258071
35.95632 0.0258058
36.29567 0.0258058
36.63774 0.025805
36.98095 0.0258044
37.32239 0.0258039
37.66276 0.0258039
38.00336 0.0258032
38.35115 0.0258032
38.69191 0.0258032
39.03247 0.0258029
39.37516 0.0258029
39.71803 0.0258029
40.06006 0.0258029
40.40087 0.0258029
40.74307 0.0258029
41.08314 0.0258029
41.42705 0.0258021
41.76861 0.0258021
42.11047 0.0258021
42.45072 0.0258006
42.79173 0.0257998
43.13406 0.0257997
43.47415 0.0257995
43.81468 0.0257989
44.15572 0.0257981
44.49911 0.0257971
44.84061 0.0257965
45.18357 0.0257961
45.52601 0.0257957
45.86631 0.0257956
46.20808 0.0257956
46.55202 0.0257954
46.89479 0.0257947
47.23691 0.025794
47.98314 0.0257938
48.32299 0.0257935
48.66638 0.0257932
49.00819 0.0257932
49.34855 0.0257928
49.68925 0.0257923
50.03154 0.025792
50.37223 0.0257915
50.71503 0.0257909
51.05718 0.0257905
51.39984 0.0257881
51.74061 0.0257863
52.0809 0.0257857
52.42302 0.0257853
52.76588 0.0257853
53.10755 0.0257853
53.45184 0.0257847
53.7948 0.0257847
54.1383 0.0257847
54.47927 0.0257847
54.82016 0.0257847
55.1619 0.0257847
55.50275 0.0257849
55.84736 0.0257849
56.18954 0.025785
56.53105 0.025785
56.87249 0.025785
57.21353 0.0257851
57.55595 0.0257851
57.89931 0.0257851
58.24201 0.0257851
58.58424 0.025785
58.92527 0.0257849
59.26855 0.0257849
59.61117 0.0257847
59.95294 0.0257846
60.29786 0.0257846
60.63849 0.0257846
60.98497 0.0257846
61.32508 0.0257846
61.66757 0.0257846
62.01003 0.0257847
62.35223 0.0257847
62.69455 0.025785
63.0377 0.0257849
63.78165 0.025785
64.12175 0.025785
64.46333 0.0257849
64.80295 0.0257843
65.14365 0.0257843
65.48462 0.0257837
65.82461 0.0257837
66.16675 0.0257837
66.50812 0.0257836
66.84977 0.025783
67.19064 0.0257838
67.53152 0.0257841
67.87288 0.0257841
68.21585 0.0257831
68.55802 0.0257828
68.89874 0.0257828
69.23983 0.0257826
69.58418 0.0257823
69.92617 0.0257821
70.26768 0.0257818
70.61071 0.0257813
70.95337 0.0257813
71.29601 0.0257813
71.63796 0.0257813
71.97999 0.0257813
72.32076 0.0257813
72.66373 0.0257813
73.00493 0.025781
73.34798 0.025781
73.6907 0.025781
74.03205 0.0257808
74.37262 0.0257805
74.7144 0.0257804
75.05548 0.02578
75.39725 0.02578
75.73802 0.0257795
76.07745 0.0257793
76.4183 0.025779
76.76091 0.0257787
77.10314 0.0257786
77.44613 0.0257787
77.78977 0.025779
78.13206 0.025779
78.4748 0.025779
78.81489 0.0257793
79.55953 0.025779
79.9021 0.0257787
80.24498 0.0257786
80.58541 0.025778
80.92988 0.0257772
81.27223 0.0257769
81.61426 0.0257769
81.9584 0.0257769
82.29913 0.0257767
82.63839 0.0257763
82.97863 0.0257751
83.3205 0.0257739
83.66254 0.0257734
84.00591 0.0257732
84.34865 0.0257731
84.69106 0.0257731
85.0326 0.0257731
85.37464 0.0257731
85.7169 0.0257731
86.05683 0.0257731
86.39876 0.025773
86.74108 0.025773
87.08202 0.025773
87.42249 0.025773
87.76499 0.025773
88.10727 0.025773
88.44701 0.0257731
88.78795 0.0257731
89.12801 0.0257731
89.4722 0.0257733
89.81402 0.0257733
90.1572 0.0257733
90.50004 0.0257741
90.83985 0.0257748
91.18236 0.0257748
91.5236 0.0257748
91.86641 0.0257748
92.20649 0.0257748
92.54817 0.0257748
92.88989 0.0257751
93.23056 0.0257754
93.57383 0.0257759
93.91389 0.0257761
94.25466 0.0257762
94.59641 0.0257765
95.3406 0.0257765
95.68242 0.0257765
96.02425 0.0257765
96.36614 0.0257762
96.70908 0.0257761
97.05017 0.0257758
97.39202 0.0257755
97.73211 0.0257754
98.07418 0.0257745
98.41386 0.0257745
98.75622 0.0257745
99.09865 0.0257725
99.44016 0.0257722
99.78242 0.0257722
100.1234 0.0257717
100.4671 0.0257711
100.8078 0.0257711
101.1501 0.0257705
101.4926 0.0257704
101.8356 0.0257703
102.1777 0.0257703
102.5196 0.0257703
102.8619 0.0257703
103.2041 0.0257703
103.5465 0.02577
103.8911 0.02577
104.2333 0.0257704
104.5734 0.02577
104.9155 0.02577
105.2584 0.02577
105.5987 0.0257704
105.9388 0.0257704
106.2806 0.02577
106.6228 0.02577
106.9652 0.0257698
107.3054 0.0257698
107.6475 0.0257696
107.9878 0.0257698
108.3289 0.0257696
108.6698 0.0257693
109.0103 0.025769
109.352 0.025769
109.6926 0.0257692
110.0334 0.0257693
110.3748 0.0257693
111.1184 0.0257691
111.4593 0.0257688
111.8002 0.0257685
112.1434 0.0257685
112.4864 0.0257682
112.8294 0.025768
113.1682 0.0257676
113.5089 0.0257668
113.8498 0.0257661
114.1918 0.0257657
114.534 0.0257629
114.8764 0.0257609
115.2176 0.0257609
115.56 0.0257609
115.9025 0.0257607
116.2428 0.0257607
116.6145 0.0257607
116.9561 0.0257607
117.2969 0.0257607
117.6383 0.0257607
117.9796 0.0257607
118.3205 0.0257612
118.6619 0.0257619
119.0044 0.0257625
119.3452 0.0257634
119.6867 0.0257641
120.0286 0.0257642
120.3716 0.0257642
120.7139 0.0257643
121.0549 0.0257645
121.3956 0.0257645
121.7364 0.0257647
122.0786 0.0257647
122.42 0.0257648
122.7657 0.0257648
123.107 0.0257649
123.4488 0.0257649
123.7909 0.0257649
124.1306 0.0257651
124.4729 0.0257655
124.8127 0.0257661
125.1545 0.0257669
125.4939 0.0257677
125.836 0.0257679
126.179 0.0257694
126.9234 0.0257711
127.2635 0.0257715
127.6046 0.0257719
127.947 0.0257767
128.289 0.0257831
128.6346 0.0257858
128.9765 0.025787
129.3165 0.0257875
129.6565 0.0257884
129.9967 0.0257899
130.3374 0.0257913
130.6771 0.0257935
131.0189 0.0257953
131.3599 0.0257972
131.7019 0.0257994
132.0445 0.0258039
132.3833 0.0258088
132.7249 0.0258105
133.067 0.0258122
133.4089 0.0258157
133.7505 0.0258203
134.0929 0.0258246
134.4336 0.0258266
134.7754 0.0258269
135.119 0.0258278
135.4636 0.0258293
135.8056 0.02583
136.1458 0.0258323
136.4859 0.0258346
136.8283 0.0258346
137.1703 0.0258356
137.5128 0.0258372
137.8521 0.025839
138.1939 0.0258412
138.5761 0.0258412
138.9166 0.0258451
139.2585 0.025848
139.5997 0.0258485
139.9405 0.0258491
140.2827 0.0258493
140.6226 0.0258495
140.9638 0.0258517
141.3056 0.0258549
141.648 0.0258564
141.988 0.0258571
142.731 0.0258578
143.0732 0.0258578
143.4148 0.0258588
143.7545 0.0258602
144.0955 0.0258613
144.4365 0.0258644
144.7786 0.025868
145.1193 0.0258693
145.4601 0.0258704
145.803 0.0258711
146.1459 0.0258718
146.4888 0.0258723
146.8304 0.0258728
147.1708 0.0258736
147.5111 0.0258753
147.8512 0.0258781
148.1934 0.0258818
148.5359 0.0258842
148.8793 0.0258849
149.2222 0.0258868
149.5642 0.0258898
149.9041 0.0258915
150.2446 0.025892
150.5862 0.0258933
150.9283 0.0258944
151.2684 0.0258945
151.6098 0.0258961
151.9516 0.0258986
152.2928 0.0259018
152.635 0.0259055
152.9752 0.025908
153.3151 0.0259093
153.656 0.0259098
153.9959 0.0259109
154.3368 0.0259126
154.6797 0.0259138
155.0229 0.0259148
155.3649 0.025916
155.7057 0.0259179
156.0467 0.0259205
156.3879 0.0259217
156.728 0.0259219
157.0685 0.0259227
157.4104 0.0259251
157.753 0.0259272
158.4982 0.0259285
158.8404 0.0259285
159.1812 0.0259285
159.523 0.0259285
159.8639 0.0259293
160.2045 0.0259294
160.5459 0.0259307
160.8869 0.025932
161.2297 0.0259322
161.5718 0.0259324
161.9115 0.0259331
162.2534 0.0259341
162.5954 0.0259352
162.9372 0.0259361
163.277 0.0259363
163.6183 0.0259369
163.9617 0.0259377
164.3016 0.0259383
164.644 0.0259392
164.9858 0.0259409
165.3266 0.0259422
165.669 0.0259428
166.0089 0.0259432
166.3511 0.0259436
166.694 0.0259441
167.0358 0.0259449
167.3778 0.0259457
167.7182 0.0259477
168.0604 0.0259495
168.4019 0.0259495
168.7423 0.0259497
169.0845 0.0259498
169.4258 0.0259502
169.767 0.0259507
170.107 0.0259511
170.4492 0.0259512
170.7914 0.0259531
171.1328 0.0259552
171.4746 0.0259567
171.8136 0.0259588
172.1551 0.0259616
172.4977 0.0259636
172.8377 0.025964
173.1802 0.0259645
173.5201 0.0259654
174.2666 0.0259662
174.6081 0.0259662
174.9495 0.0259662
175.2918 0.0259662
175.6346 0.025967
175.9782 0.0259684
176.3227 0.025969
176.6645 0.025969
177.0059 0.025969
177.3475 0.0259694
177.6925 0.0259709
178.0333 0.0259726
178.3755 0.0259731
178.7166 0.0259735
179.0586 0.0259735
179.4008 0.0259739
179.7432 0.0259739
180.084 0.0259741
180.4261 0.0259746
180.7668 0.025975
181.1073 0.0259764
181.4515 0.0259768
181.7921 0.0259772
182.1332 0.0259777
182.4752 0.0259781
182.8172 0.02598
183.1583 0.0259845
183.5022 0.0259883
183.844 0.0259895
184.1862 0.0259902
184.5289 0.0259906
184.8689 0.025991
185.2102 0.0259917
185.5548 0.0259921
185.8997 0.0259923
186.242 0.0259926
186.5865 0.0259933
186.9274 0.0259939
187.2697 0.0259939
187.6118 0.0259939
187.9542 0.0259939
188.2937 0.025994
188.6357 0.0259943
188.9754 0.025994
189.3152 0.025994
190.0587 0.025994
190.4007 0.025994
190.743 0.025994
191.0838 0.025994
191.4263 0.0259939
191.7663 0.0259937
192.1071 0.0259935
192.4487 0.0259933
192.7916 0.0259933
193.1361 0.0259933
193.4778 0.0259933
193.8183 0.0259933
194.1593 0.0259933
194.4999 0.0259935
194.8424 0.0259937
195.1822 0.025994
195.5223 0.025994
195.8642 0.025994
196.2058 0.0259948
196.5459 0.0259961
196.8879 0.0259967
197.2284 0.0259973
197.5688 0.025998
197.9112 0.0259983
198.2524 0.0259985
198.5939 0.0259987
198.9364 0.0259989
199.2783 0.0259991
199.6186 0.0259996
199.961 0.0260014
200.3038 0.0260032
200.6439 0.026004
200.9852 0.0260048
201.3268 0.0260052
201.6697 0.0260055
202.011 0.0260058
202.356 0.026006
202.699 0.0260064
203.0417 0.0260066
203.3819 0.0260069
203.7239 0.026007
204.0671 0.0260075
204.4104 0.0260081
204.7541 0.0260085
205.098 0.0260087
205.8409 0.026009
206.1822 0.0260087
206.5241 0.0260087
206.8667 0.0260087
207.2071 0.0260087
207.5493 0.026009
207.8911 0.026009
208.2343 0.0260092
208.5751 0.0260094
208.917 0.0260094
209.2586 0.0260102
209.6013 0.0260113
209.9426 0.0260119
210.2866 0.0260131
210.6318 0.0260137
210.9743 0.0260143
211.317 0.0260148
211.6598 0.0260153
212.0018 0.0260153
212.3418 0.0260156
212.6829 0.0260156
213.0256 0.0260157
213.3681 0.0260163
213.7103 0.0260173
214.0554 0.0260178
214.3978 0.0260181
214.7405 0.0260184
215.0826 0.0260187
215.4226 0.0260193
215.7624 0.0260203
216.1035 0.0260218
216.4459 0.026025
216.7892 0.0260272
217.1317 0.0260275
217.4754 0.0260279
217.8178 0.0260282
218.1601 0.0260284
218.503 0.0260287
218.8457 0.0260295
219.1878 0.0260304
219.5277 0.0260307
219.8706 0.0260311
220.2124 0.0260317
220.5543 0.0260324
220.8944 0.0260331
221.6377 0.0260334
221.9794 0.0260334
222.3197 0.0260334
222.6617 0.0260334
223.0039 0.0260334
223.3472 0.0260334
223.6882 0.0260334
224.0292 0.0260334
224.3697 0.0260334
224.7099 0.0260334
225.051 0.0260327
225.3922 0.0260313
225.7339 0.0260309
226.0759 0.0260309
226.4169 0.0260309
226.7592 0.0260309
227.1035 0.0260309
227.444 0.0260309
227.7837 0.0260309
228.1254 0.0260309
228.4649 0.0260309
228.8064 0.0260317
229.1505 0.0260321
229.4907 0.0260322
229.8328 0.0260337
230.1748 0.0260352
230.5188 0.0260356
230.8586 0.0260358
231.1992 0.0260362
231.5396 0.0260365
231.8817 0.0260366
232.2236 0.0260366
232.5632 0.0260367
232.903 0.0260371
233.2454 0.0260371
233.5884 0.0260371
233.9289 0.0260371
234.271 0.0260366
234.6106 0.0260366
234.9525 0.0260366
235.2921 0.0260368
235.6328 0.0260368
235.9751 0.026037
236.319 0.026037
236.6638 0.0260373
237.4094 0.0260375
237.7525 0.0260373
238.0942 0.026037
238.4335 0.0260366
238.774 0.0260365
239.1158 0.0260361
239.4564 0.0260361
239.8008 0.0260358
240.1426 0.0260353
240.4841 0.0260353
240.8272 0.0260358
241.1666 0.0260359
241.5076 0.0260365
241.8466 0.0260366
242.1875 0.0260366
242.5289 0.0260366
242.8709 0.026037
243.2121 0.0260385
243.5528 0.0260385
243.8953 0.0260385
244.2379 0.0260385
244.5804 0.0260405
244.9218 0.0260413
245.26 0.0260416
245.6027 0.0260417
245.9449 0.0260419
246.285 0.0260422
246.6271 0.0260424
246.9702 0.0260428
247.313 0.0260432
247.6528 0.0260434
247.9937 0.0260435
248.3325 0.0260435
248.6737 0.0260435
249.015 0.0260436
249.3569 0.0260439
249.6995 0.0260444
250.042 0.0260448
250.3853 0.0260449
250.7267 0.0260453
251.0701 0.0260461
251.4103 0.0260465
251.7504 0.0260465
252.0929 0.0260467
252.4359 0.0260467
253.1805 0.0260467
253.52 0.0260466
253.863 0.0260465
254.2041 0.0260464
254.5456 0.0260463
254.8858 0.0260456
255.2281 0.0260455
255.5714 0.0260444
255.9124 0.0260455
256.2524 0.0260455
256.5949 0.0260455
256.9371 0.0260451
257.2805 0.0260435
257.6227 0.0260435
257.9621 0.0260435
258.3043 0.0260435
258.6452 0.0260435
258.9855 0.0260435
259.327 0.0260435
259.6676 0.0260435
260.0085 0.0260435
260.3517 0.026044
260.6944 0.0260442
261.0366 0.0260443
261.3772 0.0260448
261.7191 0.0260451
262.0612 0.0260454
262.401 0.0260456
262.7426 0.0260456
263.0831 0.026046
263.424 0.0260466
263.7645 0.0260466
264.1056 0.0260468
264.4456 0.0260468
264.7866 0.026047
265.1293 0.0260475
265.472 0.026048
265.8126 0.026048
266.1547 0.0260483
266.4952 0.026048
266.8361 0.026048
267.1782 0.026048
267.5187 0.026048
267.8579 0.0260485
268.199 0.0260488
268.9436 0.0260493
269.2846 0.0260488
269.6258 0.0260478
269.9667 0.026047
270.3062 0.026047
270.649 0.0260461
270.9918 0.0260464
271.3326 0.0260464
271.6739 0.0260478
272.0161 0.0260478
272.3574 0.0260478
272.6978 0.0260478
273.0401 0.0260478
273.3816 0.0260478
273.7225 0.0260487
274.0641 0.0260489
274.4044 0.026049
274.745 0.0260492
275.0843 0.0260495
275.4262 0.02605
275.768 0.02605
276.1113 0.0260508
276.4527 0.0260512
276.7937 0.0260514
277.1354 0.0260516
277.4761 0.0260517
277.8188 0.0260517
278.161 0.0260519
278.5019 0.0260523
278.843 0.0260527
279.1828 0.026053
279.5233 0.0260531
279.8653 0.0260533
280.2067 0.0260534
280.5468 0.0260536
280.8897 0.0260537
281.2312 0.0260539
281.5718 0.0260547
281.9134 0.0260555
282.2556 0.0260558
282.5979 0.0260564
282.943 0.0260569
283.2838 0.026057
283.6242 0.0260575
283.9648 0.0260579
284.7087 0.0260579
285.0503 0.0260579
285.3925 0.0260579
285.7339 0.0260579
286.0738 0.0260579
286.4138 0.0260579
286.7538 0.0260579
287.0951 0.0260577
287.4397 0.0260573
287.7796 0.0260566
288.12 0.0260549
288.4629 0.0260524
288.8054 0.0260524
289.1478 0.0260524
289.4881 0.0260524
289.8283 0.0260524
290.1683 0.0260524
290.5103 0.0260524
290.8518 0.0260524
291.1936 0.0260524
291.535 0.0260524
291.877 0.0260535
292.2184 0.0260548
292.5599 0.0260551
292.8994 0.0260551
293.2439 0.0260551
293.5857 0.0260554
293.9273 0.0260556
294.2661 0.0260558
294.6079 0.0260564
294.9493 0.0260571
295.2897 0.0260573
295.6314 0.0260572
295.9714 0.0260571
296.3121 0.0260572
296.6528 0.0260573
296.9957 0.0260573
297.337 0.0260576
297.6769 0.0260578
298.0189 0.0260578
298.3594 0.0260578
298.6995 0.0260578
299.0419 0.0260578
299.3841 0.0260579
299.7285 0.026058
300.4728 0.0260583
300.8138 0.0260583
301.1546 0.0260583
301.4983 0.0260583
301.8383 0.026058
302.1796 0.026058
302.5198 0.0260576
302.8602 0.0260576
303.2033 0.0260576
303.5446 0.0260566
303.8855 0.0260547
304.2268 0.0260526
304.5681 0.0260526
304.9102 0.0260526
305.2521 0.0260526
305.5918 0.0260526
305.9362 0.0260526
306.2773 0.0260526
306.6199 0.0260526
306.9649 0.0260526
307.3069 0.0260526
307.6467 0.0260537
307.9871 0.0260542
308.3294 0.0260551
308.6706 0.0260563
309.0106 0.0260569
309.3529 0.0260573
309.692 0.0260578
310.0335 0.0260583
310.3761 0.0260588
310.717 0.0260592
311.059 0.0260593
311.4003 0.0260598
311.7421 0.0260604
312.0822 0.026061
312.4241 0.0260614
312.7642 0.0260614
313.1056 0.0260615
313.4474 0.0260616
313.7903 0.0260619
314.1324 0.0260622
314.4728 0.0260622
314.8128 0.0260625
315.1544 0.0260627
315.4956 0.0260628
316.2397 0.0260628
316.58 0.0260628
316.9218 0.0260628
317.2617 0.0260628
317.6054 0.0260628
317.9471 0.0260626
318.2905 0.0260625
318.6328 0.0260626
318.9736 0.0260628
319.3149 0.0260628
319.6569 0.0260628
319.998 0.0260628
320.3405 0.0260626
320.6822 0.0260625
321.0225 0.0260623
321.3643 0.0260619
321.7048 0.0260616
322.0461 0.0260604
322.3872 0.0260595
322.7278 0.0260593
323.0681 0.0260593
323.4098 0.0260595
323.7506 0.0260601
324.0902 0.0260608
324.4314 0.0260613
324.7719 0.0260618
325.1125 0.0260613
325.4536 0.0260613
325.7945 0.0260611
326.1372 0.0260611
326.479 0.0260609
326.8195 0.0260611
327.1598 0.0260611
327.5004 0.026061
327.8408 0.0260607
328.183 0.0260607
328.5225 0.0260608
328.864 0.0260608
329.2058 0.026061
329.5468 0.026061
329.8886 0.026061
330.2299 0.0260609
330.5699 0.0260608
330.9102 0.0260608
331.2501 0.0260607
331.9945 0.0260603
332.335 0.0260598
332.675 0.0260598
333.0153 0.0260595
333.357 0.0260591
333.6992 0.0260586
334.0398 0.0260582
334.3824 0.026058
334.7223 0.0260582
335.066 0.0260582
335.4059 0.0260579
335.7477 0.0260579
336.0905 0.0260579
336.432 0.0260579
336.773 0.0260574
337.1142 0.0260573
337.457 0.0260573
337.8 0.0260572
338.1414 0.0260572
338.4814 0.0260572
338.8241 0.0260573
339.1663 0.0260575
339.5062 0.0260576
339.8463 0.0260581
340.1873 0.0260587
340.5276 0.0260589
340.8695 0.026059
341.2096 0.0260591
341.5523 0.0260594
341.8943 0.0260598
342.2366 0.0260603
342.5777 0.0260613
342.9179 0.0260619
343.2582 0.0260624
343.6012 0.026063
343.9439 0.0260632
344.2859 0.0260632
344.6294 0.0260632
344.9694 0.0260638
345.3095 0.0260643
345.6486 0.0260643
345.9896 0.0260643
346.3318 0.0260642
346.6736 0.0260637
347.0156 0.0260637
347.7609 0.0260637
348.1017 0.0260637
348.4438 0.0260631
348.786 0.0260631
349.1259 0.026063
349.4674 0.0260627
349.8072 0.0260623