File: adquisiciones/GaN uvvis/bajadas/decaimiento2.txt
34.96247 0.0260561
35.30609 0.0260556
35.6508 0.026051
35.99222 0.0260476
36.33803 0.0260476
36.67885 0.0260476
37.02311 0.0260476
37.36301 0.0260476
37.70417 0.0260476
38.04816 0.0260476
38.39023 0.0260476
38.73517 0.0260476
39.07905 0.0260476
39.42219 0.0260476
39.76755 0.0260476
40.10806 0.0260476
40.44961 0.0260476
40.83048 0.0260476
41.17352 0.0260476
41.51748 0.0260476
41.86068 0.0260476
42.20353 0.0260476
42.54538 0.0260476
42.88742 0.0260467
43.23253 0.026045
43.57518 0.0260432
43.91698 0.0260422
44.25761 0.0260413
44.6007 0.0260405
44.94474 0.0260405
45.28416 0.0260405
45.62538 0.0260394
45.96948 0.0260393
46.31313 0.0260386
46.65382 0.0260382
46.99507 0.0260376
47.33496 0.0260376
48.0779 0.0260376
48.41872 0.0260376
48.76319 0.0260376
49.10628 0.0260371
49.44953 0.0260371
49.79215 0.0260368
50.13811 0.0260366
50.48354 0.0260352
50.82635 0.0260338
51.16926 0.0260337
51.51362 0.0260291
51.85637 0.0260237
52.20043 0.0260226
52.54339 0.0260226
52.88591 0.0260226
53.22962 0.0260221
53.57216 0.0260221
53.91763 0.0260212
54.25921 0.0260204
54.60276 0.0260202
54.95217 0.0260202
55.29539 0.0260207
55.63838 0.0260212
55.98042 0.0260214
56.32162 0.026022
56.66521 0.026022
57.00482 0.026022
57.34524 0.0260216
57.68741 0.0260214
58.03176 0.026021
58.37313 0.026021
58.71784 0.026021
59.0605 0.0260207
59.40308 0.0260203
59.74449 0.0260202
60.08488 0.0260205
60.42634 0.0260202
60.76727 0.0260202
61.1095 0.0260202
61.45245 0.0260195
61.79389 0.026019
62.13635 0.026018
62.47792 0.026017
62.82014 0.026017
63.16295 0.0260166
63.90889 0.0260162
64.25058 0.0260159
64.59339 0.0260159
64.93565 0.0260156
65.27808 0.0260149
65.62144 0.0260144
65.96597 0.0260139
66.30818 0.0260132
66.65147 0.0260129
66.99335 0.0260119
67.33577 0.0260091
67.67788 0.0260078
68.01978 0.0260066
68.36498 0.0260062
68.70722 0.0260062
69.04957 0.0260055
69.39278 0.0260055
69.7377 0.0260055
70.07934 0.0260055
70.4196 0.0260055
70.76448 0.0260051
71.10562 0.0260051
71.44671 0.0260051
71.78784 0.0260051
72.12931 0.0260053
72.47195 0.0260053
72.81581 0.0260051
73.15907 0.0260051
73.50562 0.0260053
73.85 0.0260057
74.19263 0.0260063
74.5367 0.0260057
74.87936 0.0260057
75.22105 0.0260053
75.56566 0.0260052
75.90685 0.0260053
76.25195 0.0260051
76.59543 0.0260051
76.93969 0.026005
77.28166 0.0260049
77.62436 0.0260045
77.96788 0.0260048
78.30656 0.0260049
78.65167 0.0260051
78.99131 0.0260051
79.73686 0.0260053
80.07849 0.0260053
80.42164 0.0260051
80.76719 0.0260049
81.10779 0.0260048
81.45177 0.0260044
81.79334 0.0260044
82.13279 0.0260044
82.47579 0.0260038
82.81983 0.0260033
83.16071 0.0259993
83.50289 0.0259953
83.84821 0.0259953
84.19035 0.0259953
84.5331 0.0259953
84.87604 0.0259953
85.21975 0.0259953
85.56405 0.0259953
85.9075 0.0259943
86.25118 0.0259926
86.59121 0.0259926
86.9317 0.0259935
87.27252 0.0259943
87.61423 0.0259953
87.95531 0.0259956
88.29898 0.0259956
88.64161 0.0259956
88.98307 0.0259956
89.3233 0.0259956
89.66516 0.0259956
90.00713 0.0259953
90.34779 0.0259952
90.6887 0.0259945
91.03491 0.0259939
91.37569 0.0259935
91.7168 0.0259931
92.06051 0.0259918
92.40324 0.0259908
92.7458 0.0259908
93.08586 0.0259908
93.42923 0.0259905
93.77255 0.0259903
94.11462 0.0259903
94.45771 0.0259903
94.80127 0.0259903
95.54536 0.0259903
95.88726 0.0259901
96.23001 0.0259899
96.57353 0.0259898
96.91539 0.0259897
97.2569 0.0259893
97.60023 0.0259886
97.94262 0.0259882
98.2861 0.025988
98.62995 0.0259875
98.97291 0.0259858
99.31691 0.0259849
99.65943 0.0259849
100.0041 0.0259849
100.3457 0.0259849
100.6864 0.0259841
101.0278 0.0259841
101.3695 0.0259841
101.7109 0.025984
102.0536 0.025984
102.398 0.025984
102.7392 0.0259845
103.0806 0.0259845
103.4241 0.0259845
103.7658 0.0259845
104.1085 0.0259845
104.451 0.025984
104.7922 0.025984
105.1351 0.025984
105.4758 0.025984
105.8223 0.025984
106.1667 0.0259834
106.5096 0.0259834
106.8538 0.0259834
107.1991 0.0259828
107.5421 0.0259828
107.8831 0.0259828
108.225 0.0259824
108.5682 0.0259824
108.9097 0.0259824
109.2558 0.0259824
109.6023 0.0259824
109.9439 0.0259824
110.2845 0.0259824
110.6272 0.0259828
111.374 0.0259832
111.7173 0.0259828
112.058 0.0259828
112.3985 0.0259828
112.7394 0.0259828
113.0864 0.0259828
113.4279 0.0259824
113.7679 0.0259824
114.1101 0.0259816
114.4511 0.0259816
114.7927 0.0259807
115.1365 0.0259801
115.4776 0.0259792
115.8254 0.0259785
116.1678 0.0259782
116.5109 0.025978
116.8816 0.025978
117.2267 0.0259777
117.5687 0.0259773
117.9082 0.0259766
118.2523 0.0259761
118.5956 0.0259761
118.9361 0.0259761
119.2766 0.0259761
119.618 0.0259761
119.958 0.0259761
120.3001 0.0259757
120.6401 0.0259757
120.9806 0.0259749
121.3224 0.0259741
121.6651 0.0259737
122.0066 0.0259733
122.348 0.0259733
122.6888 0.0259731
123.0295 0.0259731
123.3704 0.0259733
123.7109 0.0259731
124.052 0.0259729
124.3917 0.0259729
124.7328 0.0259729
125.0734 0.0259729
125.4142 0.0259729
125.7545 0.0259729
126.0942 0.025973
126.4341 0.025973
127.1784 0.0259731
127.5209 0.0259731
127.8622 0.0259731
128.2044 0.0259731
128.5446 0.0259731
128.8867 0.0259731
129.2298 0.025973
129.5722 0.0259729
129.9142 0.0259724
130.2571 0.0259713
130.5992 0.0259713
130.9403 0.0259721
131.2812 0.0259727
131.6237 0.0259722
131.9658 0.0259722
132.3074 0.025972
132.6493 0.0259719
132.9907 0.0259711
133.3331 0.0259704
133.6757 0.0259702
134.0157 0.0259701
134.3559 0.0259702
134.6966 0.0259704
135.039 0.0259704
135.3797 0.0259704
135.7201 0.0259704
136.0628 0.0259704
136.4046 0.0259703
136.7444 0.0259703
137.0863 0.0259701
137.4291 0.02597
137.7714 0.02597
138.1111 0.02597
138.4532 0.02597
138.794 0.0259697
139.1358 0.0259694
139.4757 0.0259692
139.8179 0.0259691
140.1605 0.0259689
140.5006 0.0259689
140.8428 0.0259689
141.1844 0.0259689
141.5236 0.0259685
141.8653 0.0259682
142.2055 0.0259681
142.9483 0.0259679
143.2903 0.0259678
143.6307 0.0259675
143.9708 0.0259673
144.3127 0.0259664
144.6554 0.0259655
144.996 0.0259652
145.3378 0.025965
145.6793 0.0259643
146.0192 0.0259637
146.3603 0.0259624
146.6997 0.0259612
147.0418 0.0259611
147.3819 0.025961
147.7222 0.025961
148.0637 0.025961
148.4052 0.025961
148.7458 0.025961
149.0869 0.0259606
149.427 0.0259604
149.7746 0.0259603
150.1154 0.0259606
150.4574 0.0259608
150.798 0.0259608
151.1378 0.025961
151.4805 0.025961
151.8232 0.0259611
152.1651 0.0259611
152.5068 0.025961
152.8482 0.025961
153.1907 0.0259611
153.5322 0.0259611
153.874 0.0259611
154.2165 0.0259611
154.5569 0.0259609
154.8973 0.0259609
155.2384 0.0259609
155.5786 0.025961
155.9188 0.0259616
156.2595 0.0259619
156.6019 0.0259619
156.9441 0.0259619
157.285 0.0259619
157.6277 0.0259621
157.972 0.0259621
158.7156 0.0259619
159.0573 0.0259619
159.3994 0.0259619
159.7422 0.0259619
160.0845 0.0259619
160.4252 0.0259614
160.7699 0.0259611
161.1126 0.0259605
161.4521 0.0259605
161.7936 0.0259605
162.1336 0.0259568
162.4754 0.0259544
162.8172 0.0259544
163.16 0.0259544
163.5019 0.0259538
163.8455 0.0259528
164.1864 0.0259523
164.5306 0.0259522
164.871 0.0259522
165.2116 0.0259522
165.5533 0.0259522
165.8974 0.0259524
166.2384 0.0259524
166.5804 0.0259529
166.9213 0.0259531
167.2648 0.0259533
167.6053 0.0259535
167.946 0.0259537
168.2885 0.0259537
168.628 0.0259537
168.9683 0.0259538
169.3095 0.0259538
169.6511 0.0259538
169.9931 0.0259537
170.3353 0.0259538
170.6775 0.0259541
171.0192 0.0259544
171.3615 0.0259546
171.7037 0.0259546
172.0479 0.0259552
172.3877 0.0259552
172.728 0.0259556
173.07 0.0259556
173.4102 0.0259556
173.7509 0.0259556
174.4952 0.0259553
174.837 0.0259551
175.1793 0.025955
175.5219 0.0259548
175.8651 0.0259544
176.2049 0.0259544
176.5477 0.0259544
176.8887 0.0259542
177.2284 0.0259542
177.5679 0.0259538
177.91 0.0259527
178.2535 0.0259515
178.596 0.0259515
178.9356 0.0259515
179.2765 0.0259515
179.6176 0.0259515
179.9578 0.0259515
180.2982 0.0259514
180.6403 0.0259507
180.9818 0.0259506
181.3236 0.0259506
181.6662 0.0259512
182.0094 0.0259514
182.3516 0.0259516
182.6921 0.0259516
183.0338 0.0259517
183.3764 0.0259519
183.7157 0.0259523
184.0566 0.0259524
184.3993 0.0259526
184.7415 0.0259528
185.0819 0.0259528
185.4225 0.0259528
185.7647 0.0259526
186.1055 0.0259526
186.4477 0.0259526
186.7889 0.0259521
187.1288 0.025952
187.4692 0.025952
187.8095 0.025952
188.1522 0.0259515
188.4933 0.0259514
188.8358 0.0259513
189.1777 0.025951
189.5177 0.0259513
190.2625 0.025951
190.607 0.0259506
190.9477 0.0259504
191.2903 0.0259503
191.6324 0.02595
191.9735 0.0259496
192.3164 0.0259496
192.6565 0.0259496
193.0 0.0259494
193.3433 0.0259485
193.6836 0.025946
194.0231 0.0259445
194.3655 0.0259445
194.7069 0.0259445
195.0491 0.0259444
195.3917 0.0259443
195.7339 0.0259443
196.0732 0.0259443
196.4156 0.0259443
196.7569 0.0259443
197.0984 0.0259443
197.4404 0.0259445
197.7799 0.0259446
198.122 0.0259449
198.4639 0.0259456
198.806 0.0259456
199.1459 0.025946
199.4869 0.025946
199.828 0.025946
200.1696 0.025946
200.5098 0.025946
200.8538 0.025946
201.1979 0.0259457
201.5385 0.0259453
201.8791 0.0259453
202.2195 0.0259453
202.5592 0.025945
202.9 0.0259448
203.2408 0.0259438
203.5794 0.0259427
203.9194 0.0259425
204.2612 0.0259423
204.6035 0.025942
204.9459 0.025942
205.2871 0.0259417
206.0324 0.0259414
206.3747 0.0259413
206.7179 0.0259412
207.0578 0.0259409
207.4007 0.0259401
207.7418 0.0259401
208.0831 0.0259394
208.4237 0.0259392
208.7664 0.0259385
209.1093 0.0259377
209.4495 0.0259371
209.792 0.0259363
210.1341 0.0259358
210.4741 0.0259358
210.8139 0.0259357
211.1561 0.0259357
211.4967 0.0259357
211.8416 0.0259357
212.1833 0.0259357
212.5248 0.0259357
212.8687 0.0259356
213.2108 0.0259357
213.5554 0.0259358
213.8969 0.0259358
214.2396 0.0259363
214.5797 0.0259363
214.9203 0.0259367
215.2615 0.0259367
215.6019 0.0259367
215.9443 0.0259369
216.2854 0.0259375
216.6263 0.0259377
216.9706 0.0259378
217.3114 0.0259378
217.6529 0.0259378
217.9946 0.0259378
218.3354 0.0259375
218.675 0.0259375
219.0152 0.0259372
219.3563 0.0259372
219.7014 0.0259372
220.0429 0.0259369
220.3839 0.0259367
220.724 0.0259363
221.0647 0.0259361
221.8077 0.0259361
222.148 0.025936
222.4902 0.0259358
222.8304 0.0259358
223.1724 0.0259357
223.5137 0.0259356
223.8556 0.0259355
224.1978 0.0259344
224.5408 0.0259333
224.8795 0.0259322
225.2222 0.0259284
225.564 0.0259272
225.9037 0.0259272
226.2454 0.0259272
226.5858 0.0259261
226.9287 0.0259261
227.273 0.0259261
227.615 0.0259261
227.956 0.0259261
228.2976 0.0259261
228.6407 0.0259255
228.9832 0.0259256
229.3249 0.0259261
229.6673 0.0259261
230.0074 0.0259261
230.3499 0.0259261
230.6929 0.0259268
231.036 0.025927
231.3782 0.0259271
231.7193 0.0259274
232.0594 0.0259279
232.4031 0.0259279
232.7436 0.0259279
233.0836 0.0259279
233.4249 0.0259281
233.765 0.025928
234.1059 0.025928
234.448 0.025928
234.7877 0.0259281
235.1281 0.0259283
235.47 0.0259288
235.8096 0.0259288
236.1518 0.0259288
236.492 0.0259288
236.837 0.0259288
237.5808 0.0259288
237.9225 0.0259288
238.2638 0.0259288
238.604 0.0259286
238.9459 0.0259285
239.2872 0.0259283
239.628 0.025928
239.9688 0.025928
240.3095 0.0259279
240.6543 0.0259273
240.996 0.0259245
241.3359 0.0259228
241.6785 0.0259224
242.0205 0.0259224
242.3608 0.0259224
242.7048 0.0259224
243.0449 0.0259224
243.3857 0.0259221
243.7262 0.0259219
244.068 0.0259211
244.4099 0.0259203
244.7506 0.0259209
245.0938 0.0259216
245.4364 0.0259219
245.7786 0.0259221
246.1199 0.0259224
246.4673 0.0259224
246.8099 0.0259224
247.1524 0.0259227
247.4971 0.0259231
247.8394 0.0259234
248.1792 0.0259235
248.5205 0.0259239
248.8624 0.0259239
249.2046 0.0259239
249.5466 0.0259242
249.8872 0.0259243
250.2291 0.0259246
250.5714 0.0259251
250.9127 0.0259255
251.2538 0.0259258
251.5954 0.0259261
251.938 0.0259261
252.2833 0.0259266
252.6254 0.0259274
253.3676 0.0259277
253.7102 0.0259277
254.0522 0.0259277
254.3921 0.0259277
254.7327 0.0259277
255.0742 0.0259277
255.4152 0.0259274
255.7582 0.0259265
256.0991 0.0259265
256.4415 0.0259269
256.7815 0.0259269
257.1233 0.0259264
257.4652 0.0259259
257.8077 0.0259257
258.149 0.0259255
258.4902 0.0259245
258.8333 0.0259234
259.1753 0.0259222
259.5157 0.0259209
259.8564 0.0259207
260.1978 0.0259207
260.54 0.0259211
260.8851 0.0259215
261.2269 0.025922
261.5663 0.025922
261.9096 0.025922
262.2517 0.0259215
262.5929 0.0259213
262.9353 0.0259213
263.2753 0.0259213
263.617 0.0259213
263.9593 0.0259213
264.3001 0.0259213
264.6414 0.0259213
264.9841 0.0259214
265.3248 0.0259215
265.668 0.0259216
266.009 0.0259217
266.3499 0.0259221
266.693 0.0259225
267.0356 0.0259225
267.3758 0.0259225
267.7178 0.0259226
268.0577 0.025923
268.3996 0.0259234
269.1426 0.0259236
269.4847 0.0259236
269.8273 0.0259236
270.1695 0.0259236
270.5094 0.0259236
270.852 0.0259236
271.1931 0.0259235
271.5348 0.0259235
271.877 0.0259235
272.2212 0.0259235
272.561 0.0259215
272.9021 0.0259194
273.2441 0.0259191
273.5846 0.0259191
273.9254 0.0259191
274.2662 0.0259191
274.6073 0.0259191
274.9472 0.0259191
275.2876 0.0259191
275.6259 0.0259191
275.9671 0.0259191
276.3077 0.0259191
276.648 0.0259191
276.988 0.0259191
277.3283 0.0259191
277.6707 0.0259191
278.0121 0.0259188
278.3539 0.0259186
278.6964 0.0259185
279.0376 0.0259185
279.3792 0.0259185
279.7215 0.0259186
280.0639 0.0259187
280.4036 0.0259187
280.7454 0.0259186
281.0874 0.0259186
281.4277 0.0259186
281.7687 0.0259186
282.1128 0.0259186
282.4528 0.0259186
282.7939 0.0259185
283.1357 0.0259185
283.476 0.0259186
283.8182 0.0259187
284.1611 0.0259187
284.9482 0.0259187
285.2891 0.0259187
285.6284 0.0259187
285.9685 0.0259187
286.3114 0.0259187
286.6545 0.0259187
286.9974 0.0259186
287.3395 0.0259181
287.6808 0.0259174
288.0231 0.0259156
288.3633 0.0259152
288.7036 0.0259142
289.0451 0.025914
289.3886 0.025914
289.7294 0.025914
290.0692 0.025914
290.4101 0.025914
290.7494 0.025914
291.0902 0.025914
291.4326 0.025914
291.7724 0.025914
292.1154 0.025914
292.4577 0.0259142
292.8011 0.0259147
293.143 0.0259153
293.4856 0.0259155
293.8276 0.0259156
294.1695 0.0259156
294.5119 0.0259158
294.8538 0.0259158
295.1943 0.0259156
295.5373 0.0259156
295.8784 0.0259156
296.2204 0.0259155
296.56 0.0259153
296.9041 0.0259149
297.2447 0.0259144
297.5881 0.0259137
297.9288 0.0259127
298.2712 0.0259108
298.6133 0.0259108
298.9551 0.0259095
299.296 0.0259091
299.637 0.0259086
299.98 0.0259079
300.7244 0.0259074
301.0647 0.0259071
301.4071 0.0259065
301.7487 0.0259061
302.089 0.025906
302.4309 0.025906
302.7728 0.0259058
303.1126 0.0259057
303.4539 0.0259057
303.7939 0.025905
304.1367 0.0259028
304.4792 0.0259008
304.82 0.0259008
305.1633 0.0259006
305.5062 0.0259005
305.849 0.0259003
306.1918 0.0258999
306.5339 0.0258994
306.8742 0.0258994
307.2164 0.0258994
307.5579 0.0258994
307.9012 0.0258997
308.2455 0.0258997
308.5881 0.0259
308.9281 0.0259003
309.2699 0.0259005
309.613 0.0259005
309.9541 0.0259005
310.2961 0.0259005
310.6369 0.0259006
310.9775 0.0259009
311.3186 0.0259009
311.6608 0.0259006
312.0014 0.0259004
312.3426 0.0259001
312.6831 0.0259001
313.025 0.0259006
313.3676 0.025901
313.7087 0.0259006
314.0495 0.0259005
314.3913 0.0259005
314.7316 0.0259007
315.0735 0.025901
315.4142 0.025901
315.7551 0.025901
316.4991 0.025901
316.8389 0.025901
317.1807 0.025901
317.5206 0.0259007
317.8599 0.0259007
318.2019 0.0259005
318.5431 0.0259007
318.8832 0.0259007
319.2255 0.0259007
319.5674 0.0259007
319.9095 0.0259008
320.2517 0.025901
320.592 0.025901
320.933 0.0259016
321.2738 0.0259021
321.616 0.0259021
321.9582 0.0259022
322.3 0.0259022
322.6411 0.0259022
322.9837 0.0259022
323.3243 0.0259022
323.6646 0.0259022
324.0069 0.0259022
324.3489 0.0259022
324.6899 0.0259023
325.033 0.0259024
325.3735 0.0259029
325.7156 0.0259029
326.0549 0.0259029
326.3974 0.0259029
326.7388 0.0259029
327.0815 0.0259029
327.4239 0.0259024
327.7639 0.0259024
328.1054 0.0259021
328.4469 0.0259017
328.788 0.025901
329.1302 0.0259003
329.4729 0.0259003
329.8161 0.0259003
330.1575 0.0259003
330.5015 0.0259003
330.8438 0.0259002
331.1844 0.0259002
331.5249 0.0259002
332.2688 0.0259
332.611 0.0259
332.9509 0.0259
333.2931 0.0259
333.6347 0.0259
333.9756 0.0259
334.3178 0.0258998
334.66 0.0258995
335.003 0.0258986
335.3449 0.0258975
335.6866 0.0258959
336.0326 0.0258937
336.3752 0.0258937
336.7157 0.0258937
337.0571 0.0258937
337.3974 0.0258937
337.7393 0.0258932
338.0797 0.0258929
338.4213 0.0258924
338.7631 0.0258919
339.105 0.0258917
339.4457 0.0258918
339.7882 0.025892
340.1307 0.025892
340.4717 0.025892
340.814 0.0258922
341.1546 0.0258923
341.4968 0.0258921
341.8363 0.0258921
342.1783 0.0258921
342.5201 0.0258921
342.8611 0.0258918
343.2053 0.0258917
343.5477 0.0258917
343.8877 0.0258917
344.2284 0.0258917
344.5708 0.0258917
344.9112 0.0258917
345.2527 0.0258918
345.5939 0.0258918
345.9373 0.0258921
346.2791 0.0258923
346.6193 0.0258923
346.9613 0.0258923
347.304 0.0258926
348.0482 0.0258928
348.3879 0.0258928
348.7299 0.0258928
349.0713 0.0258922
349.414 0.0258922
349.7563 0.0258922
350.0971 0.0258928