File: adquisiciones/GaN uvvis/bajadas/decaimiento.txt
34.96742 0.0263899
35.31433 0.0263866
35.65791 0.0263752
36.00076 0.026365
36.34334 0.0263644
36.68627 0.0263641
37.02854 0.0263637
37.3734 0.0263626
37.71889 0.0263618
38.06187 0.0263612
38.4023 0.0263606
38.74615 0.0263604
39.08841 0.0263601
39.43337 0.0263601
39.77702 0.0263601
40.1193 0.0263599
40.46513 0.0263594
40.80994 0.0263581
41.1499 0.0263566
41.49322 0.0263552
41.83564 0.0263531
42.1804 0.0263499
42.52322 0.0263475
42.86478 0.026347
43.20556 0.0263468
43.54772 0.0263464
43.89032 0.026346
44.2291 0.0263456
44.57215 0.0263444
44.91609 0.0263423
45.25859 0.0263403
45.60205 0.0263378
45.94776 0.0263359
46.29021 0.0263338
46.63493 0.0263305
46.98084 0.0263281
47.32128 0.0263268
48.06986 0.0263257
48.41749 0.0263243
48.76075 0.0263235
49.10157 0.026323
49.44406 0.0263226
49.78709 0.0263218
50.12956 0.0263193
50.47241 0.0263168
50.81611 0.0263164
51.15702 0.0263156
51.49785 0.0263065
51.84159 0.0262978
52.18346 0.0262976
52.52626 0.0262971
52.86935 0.0262966
53.21254 0.0262964
53.55536 0.0262962
53.89927 0.0262955
54.24316 0.0262948
54.58372 0.0262945
54.92504 0.0262943
55.2679 0.0262943
55.60955 0.026294
55.95057 0.0262937
56.29333 0.0262935
56.63426 0.026293
56.97757 0.0262925
57.32061 0.0262922
57.66416 0.0262914
58.00509 0.0262904
58.3481 0.0262894
58.68803 0.0262886
59.03333 0.026288
59.37869 0.0262873
59.72122 0.0262867
60.0632 0.0262862
60.40359 0.026286
60.74764 0.0262858
61.08957 0.0262828
61.43173 0.0262799
61.77465 0.0262796
62.11762 0.0262794
62.46131 0.0262793
62.80397 0.0262792
63.1489 0.0262782
63.89314 0.0262772
64.23643 0.0262762
64.5805 0.0262745
64.92273 0.0262729
65.26508 0.0262713
65.61005 0.0262701
65.95229 0.0262689
66.29501 0.0262666
66.63875 0.0262648
66.98009 0.0262639
67.32239 0.02626
67.67065 0.0262552
68.01638 0.0262538
68.35827 0.0262535
68.69909 0.0262532
69.03982 0.0262526
69.38335 0.0262515
69.72466 0.0262505
70.06573 0.0262491
70.40865 0.0262481
70.75123 0.0262481
71.09648 0.0262489
71.44018 0.0262497
71.7804 0.0262489
72.12505 0.0262481
72.46521 0.0262476
72.8064 0.0262469
73.14801 0.0262459
73.4883 0.0262453
73.82945 0.0262452
74.17022 0.0262446
74.51278 0.0262439
74.85402 0.0262434
75.20044 0.0262428
75.5438 0.026242
75.88594 0.026242
76.23228 0.0262419
76.57482 0.0262413
76.91689 0.0262393
77.2593 0.0262385
77.60006 0.0262383
77.94281 0.0262377
78.28488 0.0262372
78.62981 0.0262367
78.97171 0.0262363
79.71605 0.0262362
80.05688 0.0262354
80.40063 0.0262344
80.74369 0.026234
81.08315 0.0262339
81.42373 0.0262338
81.77044 0.0262336
82.1126 0.0262332
82.45586 0.0262322
82.79994 0.0262312
83.14062 0.0262249
83.48109 0.0262182
83.82253 0.0262177
84.16672 0.0262168
84.50941 0.0262165
84.851 0.0262157
85.19473 0.0262155
85.5375 0.026215
85.87986 0.0262144
86.22049 0.0262143
86.56414 0.0262142
86.90695 0.0262142
87.2492 0.0262142
87.58986 0.0262142
87.93375 0.0262142
88.2765 0.0262137
88.61973 0.0262131
88.96041 0.0262128
89.3008 0.0262125
89.64259 0.0262113
89.98471 0.0262099
90.3255 0.0262094
90.66685 0.0262093
91.00953 0.0262084
91.34973 0.0262072
91.69121 0.0262063
92.03236 0.0262053
92.37287 0.0262045
92.71921 0.0262039
93.05964 0.0262035
93.40306 0.0262032
93.74883 0.0262028
94.09174 0.0262013
94.43202 0.0261999
94.77397 0.0261999
95.5161 0.0261999
95.85756 0.0261997
96.20075 0.0261995
96.54225 0.0261993
96.88327 0.0261992
97.22646 0.0261988
97.5684 0.0261984
97.91174 0.0261982
98.25296 0.0261971
98.59268 0.0261953
98.93722 0.0261924
99.27988 0.0261909
99.62313 0.0261905
99.96611 0.0261905
100.3096 0.0261905
100.651 0.0261905
100.9935 0.02619
101.3346 0.0261899
101.6785 0.0261894
102.0192 0.0261892
102.3621 0.0261891
102.7046 0.0261892
103.0487 0.0261892
103.3927 0.0261892
103.7355 0.0261892
104.0802 0.0261892
104.423 0.0261892
104.7659 0.0261891
105.1063 0.0261889
105.4467 0.0261889
105.7893 0.0261889
106.1327 0.0261883
106.4754 0.0261876
106.8183 0.0261852
107.1593 0.0261832
107.5015 0.0261818
107.8456 0.0261794
108.1864 0.0261794
108.5296 0.0261783
108.8703 0.0261783
109.2157 0.0261783
109.5577 0.0261783
109.9005 0.0261783
110.2412 0.0261782
110.5833 0.0261776
111.3269 0.0261771
111.6696 0.0261769
112.0146 0.0261764
112.3554 0.026176
112.6967 0.0261757
113.0384 0.0261752
113.3821 0.0261748
113.7245 0.0261748
114.0679 0.0261748
114.4117 0.0261727
114.7538 0.0261665
115.1004 0.0261613
115.4436 0.0261597
115.7852 0.0261587
116.1273 0.0261584
116.4673 0.0261581
116.8392 0.0261581
117.1855 0.0261581
117.5269 0.0261576
117.8691 0.0261572
118.2122 0.0261571
118.5552 0.0261571
118.8978 0.0261571
119.2403 0.0261566
119.58 0.0261561
119.9215 0.026156
120.2614 0.0261558
120.604 0.0261553
120.9449 0.0261543
121.2854 0.0261538
121.6259 0.0261538
121.9683 0.0261536
122.3123 0.0261536
122.6523 0.0261536
122.9926 0.0261536
123.336 0.0261538
123.6792 0.0261537
124.0221 0.0261537
124.3632 0.0261536
124.7049 0.0261536
125.048 0.0261535
125.3889 0.026153
125.732 0.0261527
126.0734 0.0261527
126.4171 0.0261525
127.1635 0.0261525
127.5046 0.0261525
127.8474 0.0261525
128.1894 0.0261522
128.5298 0.0261515
128.8746 0.0261505
129.2162 0.0261499
129.5581 0.0261497
129.8989 0.0261493
130.2414 0.0261485
130.5836 0.0261428
130.9253 0.0261373
131.2675 0.0261372
131.6116 0.0261368
131.9527 0.0261368
132.2926 0.0261368
132.6316 0.0261365
132.9741 0.0261364
133.3162 0.0261364
133.6585 0.0261362
134.0004 0.0261356
134.3403 0.0261356
134.6814 0.0261356
135.0288 0.0261356
135.3701 0.0261362
135.7111 0.0261364
136.0519 0.0261364
136.3938 0.0261365
136.7335 0.0261369
137.0756 0.0261369
137.4171 0.0261374
137.7583 0.0261376
138.1 0.0261376
138.4408 0.0261377
138.7839 0.0261375
139.1262 0.0261375
139.4675 0.0261375
139.8088 0.0261375
140.1517 0.0261371
140.4927 0.0261371
140.8319 0.0261371
141.172 0.0261371
141.5145 0.0261371
141.8571 0.0261371
142.1988 0.0261367
142.9421 0.0261361
143.2835 0.0261353
143.6257 0.026135
143.9683 0.0261347
144.3083 0.0261334
144.6484 0.0261316
144.9906 0.0261306
145.3318 0.0261299
145.6719 0.0261291
146.0127 0.0261283
146.3521 0.0261243
146.6952 0.0261202
147.0359 0.0261202
147.3759 0.0261202
147.7171 0.0261198
148.0592 0.0261193
148.401 0.0261189
148.7426 0.0261188
149.0852 0.0261185
149.4276 0.0261182
149.7694 0.0261178
150.1098 0.0261178
150.4516 0.0261178
150.7935 0.0261178
151.1352 0.0261173
151.477 0.0261172
151.8202 0.026114
152.1622 0.0261103
152.5045 0.0261087
152.8451 0.0261076
153.1848 0.0261074
153.5272 0.0261071
153.8672 0.026107
154.2071 0.0261065
154.5516 0.0261062
154.8932 0.0261062
155.2337 0.0261062
155.574 0.0261066
155.9149 0.026107
156.257 0.026107
156.5992 0.0261073
156.944 0.0261074
157.2861 0.0261076
157.6272 0.0261079
157.968 0.0261076
158.7113 0.0261073
159.0534 0.0261073
159.3963 0.0261073
159.7386 0.0261068
160.08 0.0261068
160.42 0.0261068
160.7626 0.0261068
161.1023 0.0261058
161.4436 0.0261058
161.7851 0.0261049
162.1276 0.0261012
162.4697 0.0260978
162.8098 0.0260976
163.1516 0.0260974
163.4925 0.026097
163.8343 0.0260965
164.1751 0.0260962
164.5182 0.0260958
164.86 0.0260958
165.2018 0.0260958
165.544 0.0260955
165.8846 0.0260955
166.2247 0.0260955
166.5663 0.0260955
166.9088 0.0260955
167.2517 0.0260955
167.5938 0.026095
167.9337 0.0260948
168.2734 0.0260947
168.6161 0.0260947
168.9566 0.0260947
169.2955 0.0260947
169.6377 0.0260946
169.9811 0.0260946
170.3235 0.0260946
170.6639 0.0260946
171.0054 0.0260943
171.3469 0.026094
171.689 0.0260936
172.0311 0.026093
172.3732 0.0260926
172.7121 0.0260924
173.0527 0.0260922
173.3942 0.0260922
173.7367 0.0260922
174.4795 0.0260919
174.8207 0.0260914
175.1611 0.0260907
175.5036 0.0260903
175.8448 0.0260897
176.1851 0.0260886
176.5256 0.0260877
176.8672 0.0260873
177.2097 0.0260866
177.5523 0.0260847
177.8914 0.0260835
178.2334 0.0260826
178.5729 0.0260818
178.9134 0.0260818
179.255 0.0260815
179.5999 0.0260814
179.9424 0.0260808
180.2843 0.0260794
180.6263 0.0260784
180.9683 0.026078
181.3094 0.0260776
181.6512 0.0260776
181.992 0.0260776
182.3325 0.0260779
182.6749 0.026078
183.0154 0.0260783
183.3585 0.026078
183.7 0.026078
184.0406 0.026078
184.3832 0.026078
184.7262 0.026078
185.0687 0.026078
185.4084 0.026078
185.7497 0.026078
186.0908 0.0260783
186.432 0.0260787
186.7739 0.0260788
187.116 0.026079
187.456 0.0260792
187.7971 0.0260793
188.1399 0.0260797
188.4834 0.0260797
188.8254 0.0260797
189.1676 0.0260798
189.5094 0.0260798
190.2512 0.0260799
190.5935 0.0260799
190.9349 0.0260798
191.277 0.0260798
191.6174 0.0260798
191.9589 0.0260796
192.3011 0.0260793
192.6432 0.0260792
192.985 0.0260789
193.3257 0.0260784
193.6671 0.0260728
194.0082 0.0260674
194.3487 0.0260666
194.6916 0.0260655
195.0332 0.026065
195.3747 0.0260645
195.7169 0.0260642
196.0592 0.0260636
196.4002 0.0260635
196.7425 0.0260635
197.0843 0.0260635
197.4249 0.0260639
197.7658 0.0260641
198.1062 0.0260641
198.448 0.0260641
198.7903 0.026064
199.1303 0.0260639
199.4708 0.0260636
199.813 0.0260633
200.1552 0.0260633
200.4996 0.0260633
200.8414 0.0260633
201.1822 0.0260633
201.521 0.0260633
201.8617 0.0260633
202.2044 0.0260633
202.5466 0.0260636
202.8867 0.0260639
203.2289 0.0260636
203.5694 0.0260633
203.9111 0.0260627
204.2526 0.0260622
204.5952 0.0260622
204.9368 0.0260622
205.2791 0.0260621
206.0248 0.0260621
206.367 0.0260621
206.7069 0.0260621
207.0493 0.026062
207.3925 0.0260619
207.7337 0.0260618
208.0769 0.0260616
208.4185 0.0260616
208.7596 0.0260613
209.1016 0.0260613
209.4437 0.0260586
209.7831 0.0260559
210.1254 0.0260559
210.4679 0.0260554
210.8097 0.0260554
211.1516 0.0260553
211.4922 0.0260547
211.8338 0.0260538
212.1751 0.0260533
212.5156 0.0260533
212.8573 0.0260532
213.1962 0.0260532
213.5372 0.0260532
213.881 0.0260532
214.2214 0.0260533
214.5625 0.0260533
214.904 0.0260533
215.2454 0.0260533
215.586 0.026053
215.9271 0.026053
216.2688 0.026053
216.6093 0.026053
216.9519 0.026053
217.2939 0.0260521
217.6368 0.0260514
217.9784 0.0260512
218.3214 0.0260511
218.6662 0.0260511
219.008 0.0260511
219.3502 0.0260509
219.6919 0.0260509
220.0328 0.0260509
220.374 0.0260512
220.7163 0.0260512
221.06 0.0260509
221.8058 0.026051
222.1479 0.0260506
222.4876 0.0260506
222.8275 0.0260503
223.1658 0.0260499
223.5086 0.0260498
223.8494 0.0260497
224.192 0.0260493
224.5317 0.026049
224.8738 0.0260473
225.2156 0.0260453
225.556 0.026046
225.8969 0.0260449
226.2377 0.0260449
226.5781 0.0260444
226.92 0.0260437
227.2631 0.0260437
227.6065 0.0260437
227.9511 0.0260437
228.292 0.0260437
228.6331 0.0260437
228.9731 0.0260444
229.3154 0.0260444
229.6574 0.0260449
229.997 0.0260449
230.3378 0.0260449
230.6792 0.0260449
231.0192 0.0260449
231.3609 0.0260447
231.7018 0.0260447
232.0437 0.0260447
232.3832 0.026044
232.7237 0.0260433
233.0652 0.0260429
233.4054 0.0260424
233.748 0.0260421
234.0899 0.0260414
234.4298 0.0260411
234.7704 0.0260409
235.1128 0.0260408
235.4545 0.0260406
235.7998 0.0260405
236.1418 0.0260405
236.4823 0.0260405
236.8249 0.0260404
237.5692 0.0260404
237.9114 0.0260404
238.2543 0.0260403
238.596 0.0260401
238.9361 0.0260399
239.2774 0.0260395
239.6172 0.0260394
239.9593 0.026039
240.3014 0.0260387
240.6418 0.0260386
240.9822 0.0260358
241.3241 0.0260328
241.6653 0.0260324
242.0076 0.0260314
242.3481 0.0260302
242.688 0.0260299
243.03 0.0260295
243.3716 0.0260295
243.712 0.026029
244.054 0.0260288
244.3935 0.0260287
244.7344 0.0260287
245.0755 0.0260287
245.4175 0.0260287
245.76 0.0260288
246.1022 0.0260288
246.4429 0.0260287
246.7854 0.0260284
247.1246 0.026028
247.4659 0.0260277
247.8068 0.0260276
248.1501 0.026027
248.4924 0.026026
248.8328 0.0260257
249.1722 0.0260256
249.514 0.0260256
249.8562 0.0260255
250.1968 0.0260252
250.537 0.026025
250.8782 0.0260248
251.2206 0.0260246
251.5632 0.0260238
251.9044 0.0260238
252.2471 0.0260236
252.5871 0.0260236
253.3316 0.0260232
253.6729 0.0260231
254.0142 0.026023
254.3571 0.0260229
254.6977 0.0260227
255.0405 0.0260227
255.3835 0.0260225
255.7261 0.0260221
256.0683 0.0260218
256.4119 0.0260205
256.7542 0.0260187
257.095 0.0260177
257.4357 0.0260177
257.7781 0.0260177
258.1203 0.0260177
258.4604 0.0260177
258.801 0.0260176
259.1448 0.0260176
259.4858 0.0260176
259.8273 0.0260176
260.1695 0.0260176
260.5112 0.0260181
260.853 0.0260183
261.1956 0.0260186
261.5382 0.026019
261.8802 0.0260202
262.2191 0.0260217
262.5599 0.0260221
262.901 0.0260221
263.2432 0.0260226
263.5843 0.0260231
263.9267 0.0260231
264.2683 0.0260231
264.6088 0.0260231
264.9492 0.0260231
265.2891 0.0260231
265.6319 0.0260231
265.9727 0.0260228
266.3126 0.0260223
266.6545 0.0260223
266.9963 0.0260223
267.3391 0.0260223
267.6796 0.0260223
268.0221 0.0260223
268.3628 0.0260226
269.1094 0.0260228
269.456 0.0260226
269.798 0.0260222
270.1385 0.0260222
270.4788 0.0260207
270.8208 0.0260193
271.1632 0.0260191
271.5023 0.0260187
271.8451 0.0260187
272.1852 0.0260187
272.5262 0.0260184
272.8673 0.0260181
273.2089 0.0260176
273.5494 0.026017
273.8892 0.0260157
274.2309 0.0260142
274.5715 0.0260135
274.9122 0.0260133
275.2552 0.0260132
275.5967 0.0260131
275.9395 0.0260131
276.2813 0.0260132
276.6218 0.0260132
276.9637 0.0260132
277.3054 0.0260132
277.6476 0.0260132
277.9876 0.0260131
278.329 0.0260128
278.6694 0.0260123
279.01 0.0260121
279.3506 0.0260119
279.693 0.0260116
280.0336 0.0260114
280.3733 0.026011
280.7143 0.0260109
281.0551 0.026011
281.3973 0.0260109
281.74 0.0260109
282.0829 0.0260109
282.4247 0.0260105
282.7648 0.02601
283.1076 0.0260096
283.4496 0.0260092
283.7893 0.026009
284.1298 0.0260089
284.8741 0.0260087
285.2165 0.0260085
285.556 0.026008
285.896 0.0260076
286.2382 0.0260067
286.5804 0.0260057
286.9218 0.0260054
287.2621 0.026005
287.6045 0.0260045
287.9446 0.0260036
288.285 0.0260018
288.6259 0.0260003
288.9654 0.0260003
289.3078 0.0259997
289.6476 0.0259993
289.9886 0.0259986
290.331 0.0259986
290.6723 0.0259985
291.0145 0.0259982
291.3537 0.0259982
291.6964 0.0259982
292.0387 0.0259987
292.381 0.0259991
292.7222 0.0259991
293.0617 0.0259993
293.4045 0.0259993
293.7455 0.0259994
294.0879 0.0259994
294.429 0.0259994
294.7716 0.0259993
295.1134 0.0259993
295.455 0.0259994
295.7978 0.0259994
296.1405 0.0259995
296.4799 0.0259998
296.8218 0.0260002
297.1637 0.0260002
297.5036 0.0260004
297.8461 0.0260004
298.1884 0.0260005
298.5291 0.0260005
298.8694 0.0260004
299.2139 0.0260004
299.5568 0.0260005
299.8992 0.0260005
300.6413 0.0260005
300.982 0.0260005
301.324 0.0260005
301.6663 0.0260005
302.0072 0.0260005
302.3482 0.0260004
302.6909 0.0260003
303.032 0.026
303.3727 0.0259996
303.7149 0.0259982
304.0578 0.0259971
304.3992 0.0259971
304.741 0.0259971
305.0827 0.0259971
305.424 0.0259971
305.7659 0.0259968
306.108 0.025995
306.4482 0.0259928
306.7909 0.0259919
307.1323 0.0259917
307.4745 0.0259917
307.8165 0.0259921
308.1565 0.0259924
308.4972 0.025993
308.8378 0.0259936
309.1803 0.025994
309.5218 0.0259947
309.8621 0.025996
310.2018 0.025996
310.5431 0.0259947
310.8852 0.0259947
311.2269 0.0259947
311.5679 0.0259945
311.9104 0.0259945
312.2509 0.0259945
312.5916 0.025995
312.9319 0.0259953
313.2728 0.0259953
313.6136 0.0259953
313.9542 0.0259953
314.2964 0.0259953
314.6385 0.0259955
314.979 0.0259955
315.3209 0.0259957
315.661 0.0259959
316.4035 0.0259957
316.7442 0.0259955
317.0846 0.0259954
317.426 0.0259954
317.768 0.0259954
318.1106 0.0259951
318.4528 0.0259947
318.7962 0.0259945
319.1377 0.0259926
319.4789 0.0259905
319.8225 0.0259892
320.1623 0.0259871
320.5054 0.025986
320.845 0.025986
321.1865 0.025986
321.5263 0.0259854
321.8684 0.025985
322.2082 0.0259849
322.5483 0.0259847
322.8887 0.0259847
323.2309 0.0259847
323.5723 0.0259847
323.9131 0.0259847
324.2543 0.0259847
324.5955 0.0259847
324.9375 0.0259847
325.2771 0.0259847
325.6178 0.0259845
325.96 0.0259839
326.3001 0.0259839
326.6417 0.0259839
326.9817 0.0259833
327.3225 0.0259831
327.6637 0.0259831
328.0041 0.0259831
328.3447 0.0259831
328.6847 0.0259832
329.0259 0.0259829
329.3692 0.0259826
329.7105 0.0259826
330.0531 0.0259826
330.3953 0.0259826
330.7346 0.0259826
331.0767 0.0259827
331.4174 0.0259828
332.1618 0.0259828
332.5022 0.0259828
332.8412 0.0259828
333.1816 0.0259828
333.5236 0.0259828
333.8636 0.0259828
334.2058 0.0259828
334.548 0.0259828
334.8886 0.0259827
335.2298 0.0259822
335.569 0.0259791
335.9107 0.0259766
336.252 0.0259766
336.595 0.0259766
336.9373 0.0259766
337.2807 0.0259766
337.6225 0.0259766
337.9655 0.0259766
338.305 0.0259766
338.6467 0.0259766
338.9867 0.0259766
339.3268 0.0259775
339.6669 0.0259778
340.0085 0.0259785
340.3506 0.025979
340.6933 0.0259796
341.0338 0.0259801
341.3764 0.0259812
341.7183 0.0259815
342.0588 0.0259821
342.4015 0.0259821
342.744 0.0259821
343.0843 0.0259825
343.4261 0.0259827
343.7661 0.0259828
344.1077 0.0259828
344.448 0.0259827
344.7901 0.0259825
345.1294 0.0259822
345.4709 0.0259817
345.8125 0.0259813
346.157 0.0259813
346.498 0.025982
346.8399 0.0259827
347.1795 0.025982
347.9218 0.0259813
348.264 0.0259809
348.6058 0.0259801
348.9487 0.0259794
349.2887 0.0259793
349.6308 0.0259792
349.9732 0.025979