File: adquisiciones/GaN uvvis/bajadas/Eestab_post_320.txt
69.30937 0.0261959
69.99623 0.0261947
70.68586 0.0261946
71.37175 0.0261946
72.05695 0.0261936
72.74259 0.0261923
73.42746 0.0261922
74.11036 0.0261915
74.79501 0.0261896
75.47603 0.0261893
76.16134 0.0261868
76.84647 0.0261864
77.53177 0.0261854
78.21578 0.0261841
78.90097 0.0261835
79.99229 0.0261793
80.67548 0.0261771
81.36382 0.0261766
82.04586 0.0261756
82.72875 0.026173
83.41249 0.0261588
84.09428 0.0261581
84.77961 0.0261564
85.46809 0.026156
86.15661 0.0261554
86.8459 0.0261553
87.53575 0.0261553
88.22377 0.0261545
88.90852 0.0261538
89.59317 0.0261531
90.27761 0.0261528
90.96265 0.0261518
91.65178 0.0261504
92.33752 0.0261477
93.02342 0.0261472
93.70842 0.0261461
94.39249 0.0261459
95.48234 0.0261454
96.16771 0.0261438
96.8512 0.0261429
97.53444 0.0261416
98.21914 0.0261411
98.90541 0.0261341
99.59749 0.0261263
100.2845 0.0261254
100.9743 0.0261254
101.6616 0.026125
102.3442 0.0261247
103.0299 0.0261247
103.7148 0.0261247
104.4001 0.0261249
105.0873 0.0261243
105.7694 0.0261235
106.4501 0.0261225
107.1367 0.0261216
107.8267 0.0261207
108.5114 0.0261203
109.1966 0.0261189
109.8826 0.0261183
110.5674 0.0261177
111.6591 0.0261171
112.3436 0.0261161
113.0249 0.0261149
113.7083 0.0261137
114.3961 0.0261131
115.0824 0.0261035
115.7717 0.0261032
116.4559 0.0261018
117.1402 0.0261012
117.8246 0.0261012
118.508 0.0261011
119.1891 0.0261011
119.8755 0.0261011
120.5605 0.0261009
121.2503 0.0261004
121.9318 0.0260992
122.6183 0.0260978
123.305 0.0260943
123.9888 0.0260926
124.6755 0.0260924
125.3641 0.0260924
126.0512 0.0260923
127.1385 0.0260923
127.8262 0.026092
128.5158 0.0260914
129.1972 0.0260912
129.8844 0.026091
130.57 0.0260875
131.2561 0.0260857
131.9423 0.0260848
132.6308 0.0260834
133.3195 0.0260832
134.0088 0.0260822
134.6943 0.0260822
135.3815 0.0260817
136.0686 0.0260814
136.7528 0.0260811
137.4354 0.026079
138.1227 0.0260774
138.808 0.0260765
139.4917 0.0260762
140.1752 0.0260757
140.8618 0.0260743
141.5451 0.0260733
142.2315 0.0260718
143.3161 0.0260713
143.9984 0.0260704
144.6842 0.0260699
145.3696 0.0260676
146.0586 0.0260654
146.7442 0.0260553
147.4312 0.0260553
148.1151 0.0260552
148.8004 0.0260549
149.4883 0.0260544
150.1734 0.0260547
150.8598 0.0260551
151.5439 0.0260554
152.2303 0.0260555
152.9161 0.0260555
153.605 0.0260554
154.2893 0.0260549
154.9729 0.0260539
155.6622 0.0260528
156.3474 0.0260525
157.0343 0.0260519
157.7226 0.0260505
158.8123 0.0260498
159.4958 0.026049
160.1805 0.0260485
160.8625 0.0260475
161.545 0.0260458
162.2283 0.0260433
162.9121 0.0260401
163.5963 0.0260387
164.2817 0.0260384
164.9642 0.0260378
165.6517 0.0260378
166.339 0.0260382
167.0271 0.0260386
167.711 0.0260386
168.3985 0.0260382
169.0863 0.0260382
169.7699 0.0260381
170.4552 0.0260377
171.1399 0.0260373
171.8241 0.0260373
172.5074 0.0260355
173.1936 0.0260328
173.878 0.0260319
174.964 0.0260314
175.6484 0.0260311
176.3327 0.0260308
177.0152 0.0260301
177.6976 0.0260296
178.3847 0.0260211
179.0714 0.0260203
179.7571 0.0260196
180.4409 0.026019
181.1247 0.026019
181.8077 0.026019
182.4927 0.026019
183.1736 0.026019
183.8605 0.0260189
184.5464 0.0260183
185.2314 0.0260179
185.9176 0.0260176
186.6012 0.0260169
187.2855 0.0260168
187.9683 0.0260162
188.6498 0.0260145
189.3354 0.0260132
190.4245 0.0260119
191.1091 0.0260104
191.7937 0.02601
192.4761 0.0260095
193.1598 0.0260094
193.8433 0.0260072
194.5283 0.0260052
195.2125 0.0260052
195.8947 0.0260052
196.5781 0.0260052
197.2624 0.0260052
197.9433 0.0260056
198.6273 0.0260058
199.3112 0.0260058
199.9936 0.0260058
200.6785 0.0260058
201.3603 0.026006
202.0457 0.0260053
202.7273 0.0260047
203.41 0.0260044
204.0965 0.0260042
204.7819 0.0260041
205.4691 0.026004
206.5525 0.026004
207.2343 0.0260037
207.9183 0.0260037
208.6018 0.0260034
209.2862 0.0260017
209.9745 0.0259982
210.6574 0.0259977
211.3453 0.0259971
212.0311 0.0259955
212.7171 0.0259932
213.4012 0.0259945
214.0874 0.0259951
214.7753 0.0259951
215.4604 0.0259953
216.1481 0.0259947
216.8345 0.0259946
217.5214 0.0259937
218.2062 0.0259931
218.8893 0.0259931
219.5743 0.0259934
220.2564 0.0259929
220.9422 0.0259925
222.0314 0.0259908
222.7165 0.02599
223.4031 0.0259895
224.0873 0.0259883
224.7678 0.0259878
225.4543 0.0259856
226.14 0.0259845
226.825 0.0259843
227.5089 0.0259836
228.1971 0.0259835
228.8801 0.0259829
229.5638 0.0259829
230.247 0.0259829
230.9329 0.0259827
231.6176 0.0259826
232.3013 0.0259815
233.016 0.0259812
233.6997 0.0259812
234.3817 0.0259809
235.0653 0.0259806
235.7499 0.0259806
236.4323 0.0259806
237.1131 0.0259806
238.1955 0.0259807
238.878 0.0259806
239.56 0.0259802
240.2419 0.0259794
240.9241 0.0259784
241.6088 0.0259733
242.2946 0.0259714
242.976 0.0259702
243.6578 0.0259694
244.3409 0.0259691
245.0226 0.0259687
245.7058 0.0259687
246.3914 0.0259682
247.0752 0.0259677
247.7596 0.0259674
248.4418 0.0259672
249.1249 0.025967
249.8084 0.0259667
250.4895 0.0259667
251.1748 0.0259667
251.8559 0.0259667
252.5385 0.0259663
253.624 0.0259659
254.3052 0.0259656
254.9902 0.0259656
255.6752 0.0259652
256.3602 0.0259646
257.0452 0.0259629
257.731 0.0259618
258.4112 0.0259615
259.0936 0.0259614
259.778 0.0259603
260.4599 0.0259597
261.141 0.0259599
261.824 0.0259599
262.5052 0.0259598
263.1887 0.0259596
263.8725 0.0259595
264.5559 0.0259588
265.2407 0.0259583
265.9261 0.0259578
266.6089 0.0259577
267.2911 0.0259574
267.9762 0.0259573
268.6596 0.0259571
269.7446 0.0259571
270.4244 0.025957
271.1065 0.025956
271.7891 0.0259546
272.47 0.0259528
273.1525 0.0259454
273.8328 0.0259448
274.516 0.0259445
275.1985 0.0259445
275.8811 0.0259445
276.5633 0.025945
277.2488 0.0259454
277.9335 0.0259466
278.6165 0.0259469
279.3007 0.0259469
279.9844 0.0259469
280.6663 0.0259469
281.3484 0.0259469
282.0309 0.0259462
282.7136 0.0259413
283.3956 0.0259407
284.0782 0.0259404
285.1637 0.0259404
285.849 0.0259401
286.5338 0.0259399
287.2165 0.0259394
287.9004 0.0259393
288.5836 0.025939
289.2666 0.0259392
289.9526 0.0259392
290.6375 0.0259392
291.3205 0.0259391
292.0015 0.0259386
292.6836 0.0259388
293.3678 0.0259388
294.0518 0.0259388
294.734 0.0259384
295.4133 0.0259381
296.0964 0.0259379
296.7804 0.0259376
297.4605 0.0259376
298.1455 0.0259379
298.8292 0.0259383
299.5091 0.0259381
300.1925 0.0259383
301.2807 0.025938
301.9645 0.025938
302.6476 0.0259379
303.3292 0.0259365
304.0171 0.0259342
304.6996 0.0259332
305.3816 0.0259319
306.0642 0.0259315
306.7474 0.0259315
307.4368 0.0259315
308.1172 0.0259315
308.8032 0.0259319
309.4851 0.0259322
310.1668 0.0259328
310.8499 0.0259341
311.5319 0.0259351
312.2175 0.0259358
312.9013 0.0259358
313.5834 0.0259358
314.2656 0.0259365
314.9506 0.0259367
315.632 0.0259368
316.7169 0.0259368
317.4015 0.0259367
318.0828 0.0259355
318.7634 0.0259347
319.4481 0.025934
320.1295 0.0259322
320.8123 0.025932
321.4924 0.02593
322.1753 0.0259289
322.8573 0.0259287
323.5399 0.0259279
324.2245 0.0259279
324.9073 0.0259279
325.5917 0.0259281
326.2755 0.0259283
326.957 0.0259281
327.6404 0.0259277
328.3237 0.0259279
329.0083 0.025927
329.6951 0.0259265
330.3804 0.025927
331.0646 0.0259276
331.7479 0.0259276
332.8342 0.025927
333.5153 0.0259265
334.198 0.0259259
334.8843 0.0259259
335.568 0.0259243
336.2491 0.0259235
336.9315 0.0259234
337.6124 0.0259234
338.2977 0.0259234
338.9797 0.0259233
339.6628 0.0259231
340.3484 0.0259231
341.0303 0.0259231
341.7121 0.0259231
342.3957 0.0259225
343.0797 0.0259225
343.7597 0.0259225
344.4418 0.0259223
345.1239 0.0259217
345.8047 0.0259213
346.4866 0.0259213
347.172 0.0259218
348.2558 0.0259218
348.9385 0.0259214
349.6212 0.0259202
350.306 0.0259194
350.9902 0.025918
351.6731 0.025914
352.3534 0.0259127
353.0354 0.025911
353.7182 0.025911
354.3997 0.0259107
355.0835 0.0259107
355.7644 0.0259119
356.4493 0.025913
357.1332 0.025913
357.8156 0.025913
358.4974 0.025913
359.1822 0.0259131
359.867 0.0259131
360.5495 0.0259131
361.232 0.0259132
361.916 0.0259133
362.5987 0.0259132
363.2815 0.0259132
364.3671 0.0259134
365.0527 0.0259132
365.736 0.0259132
366.4197 0.025913
367.1041 0.0259123
367.7843 0.0259088
368.4648 0.0259078
369.1463 0.0259069
369.8299 0.0259057
370.5119 0.0259057
371.1935 0.0259057
371.8778 0.0259059
372.56 0.0259069
373.2415 0.025908
373.923 0.0259084
374.6042 0.0259073
375.284 0.0259068
375.9684 0.0259068
376.6486 0.0259068
377.3299 0.0259071
378.0142 0.0259071
378.6957 0.0259068
379.7799 0.0259064
380.4626 0.0259059
381.1445 0.0259049
381.8255 0.0259042
382.5081 0.0259042
383.1873 0.0259017
383.8685 0.0258985
384.5511 0.0258977
385.2334 0.0258977
385.9156 0.0258977
386.6003 0.0258977
387.2836 0.0258981
387.9668 0.0258983
388.6485 0.0258988
389.3335 0.0258992
390.0186 0.0258996
390.7012 0.0259002
391.3859 0.0259007
392.0701 0.0259013
392.7531 0.0259014
393.4332 0.0259016
394.114 0.0259013
394.7984 0.0259013
395.8836 0.0259013
396.5677 0.0259011
397.2501 0.0258995
397.9331 0.0258987
398.6174 0.0258975
399.2979 0.0258927
399.9831 0.0258921
400.6662 0.0258919
401.3482 0.0258909
402.0303 0.0258906
402.7107 0.0258903
403.3956 0.0258906
404.0808 0.0258907
404.7608 0.0258907
405.4447 0.0258908
406.1256 0.025891
406.8084 0.0258911
407.4908 0.0258921
408.1732 0.0258933
408.8538 0.0258934
409.5347 0.0258939
410.2175 0.0258944
411.3031 0.0258955
411.9852 0.025895
412.6667 0.025895
413.3485 0.0258937
414.0287 0.0258932
414.7122 0.0258908
415.394 0.0258884
416.0752 0.0258883
416.7583 0.0258879
417.4413 0.025887
418.1222 0.0258855
418.804 0.0258863
419.4868 0.0258868
420.1695 0.0258874
420.849 0.0258868
421.5313 0.025886
422.212 0.0258848
422.8936 0.0258846
423.5756 0.0258846
424.2581 0.0258849
424.9415 0.0258849
425.6222 0.0258849
426.3053 0.0258849
427.3936 0.0258849
428.0768 0.0258849
428.7574 0.0258849
429.4404 0.0258849
430.1222 0.0258843
430.8073 0.0258825
431.488 0.0258815
432.1685 0.0258807
432.8518 0.0258807
433.5355 0.0258807
434.218 0.0258811
434.904 0.0258819
435.5873 0.0258831
436.268 0.0258839
436.9497 0.0258842
437.6342 0.0258843
438.3152 0.0258848
438.9979 0.025885
439.6819 0.0258856
440.3638 0.0258856
441.0435 0.0258854
441.7263 0.0258852
442.8123 0.0258857
443.4955 0.0258857
444.1775 0.0258854
444.8576 0.0258851
445.5417 0.025884
446.2239 0.0258834
446.9081 0.0258823
447.5903 0.0258805
448.2725 0.0258788
448.9544 0.0258779
449.6373 0.0258779
450.3203 0.0258792
451.0041 0.0258792
451.6876 0.0258801
452.3692 0.0258798
453.0526 0.0258798
453.7354 0.0258798
454.4154 0.0258797
455.0968 0.0258797
455.7798 0.0258797
456.4625 0.0258794
457.144 0.0258789
457.8249 0.0258779
458.91 0.0258769
459.592 0.0258751
460.2732 0.0258733
460.9558 0.025872
461.6381 0.0258704
462.3232 0.025872
463.005 0.025872
463.6877 0.0258722
464.3721 0.0258722
465.0515 0.0258722
465.7356 0.0258724
466.4206 0.0258726
467.1076 0.025873
467.7886 0.0258733
468.4716 0.0258733
469.1534 0.0258733
469.8357 0.0258733
470.5163 0.0258732
471.1996 0.0258726
471.8816 0.0258713
472.5638 0.0258705
473.2458 0.0258698
474.3294 0.0258687
475.0142 0.0258678
475.6968 0.0258673
476.3804 0.0258671
477.0598 0.0258666
477.7415 0.0258663
478.4237 0.0258645
479.1059 0.0258645
479.787 0.0258644
480.4701 0.0258644
481.1515 0.0258644
481.8359 0.0258647
482.5204 0.0258651
483.2007 0.0258655
483.8852 0.0258655
484.5679 0.0258654
485.251 0.0258658
485.933 0.0258655
486.6147 0.0258659
487.2955 0.0258663
487.9779 0.0258663
488.6603 0.0258661
489.3432 0.025866
490.428 0.025866
491.1084 0.025866
491.7909 0.025866
492.472 0.0258648
493.1539 0.0258642
493.8386 0.0258608
494.52 0.02586
495.2045 0.0258592
495.8874 0.0258592
496.5705 0.0258592
497.2502 0.0258592
497.9334 0.0258593
498.6167 0.0258596
499.3005 0.0258603
499.984 0.0258603
500.6655 0.0258597
501.3485 0.0258597
502.031 0.0258601
502.7129 0.0258597
503.3942 0.0258595
504.0753 0.0258588
504.7596 0.0258585
505.8436 0.0258572
506.5268 0.0258563
507.2098 0.0258549
507.8947 0.025854
508.5769 0.025854
509.2615 0.025854
509.9444 0.0258544
510.6258 0.0258546
511.3073 0.0258554
511.9859 0.0258554
512.6702 0.0258554
513.3509 0.0258555
514.0351 0.0258556
514.7204 0.0258556
515.4046 0.0258555
516.0889 0.0258554
516.7736 0.0258551
517.457 0.0258556
518.143 0.0258552
518.8247 0.0258546
519.508 0.0258543
520.1906 0.0258541
520.8725 0.0258535
521.9569 0.0258531
522.6396 0.0258528
523.3179 0.0258524
524.0004 0.0258522
524.68 0.0258501
525.3614 0.025848
526.046 0.025847
526.7294 0.025847
527.4139 0.025847
528.0992 0.0258465
528.7866 0.0258467
529.4713 0.0258476
530.1538 0.0258491
530.8353 0.0258496
531.5196 0.02585
532.2035 0.0258503
532.8859 0.0258513
533.5678 0.0258515
534.2494 0.025852
534.9352 0.0258535
535.6174 0.0258535
536.2983 0.0258536
537.3842 0.0258537
538.0676 0.0258537
538.7512 0.0258537
539.4328 0.0258537
540.115 0.0258532
540.7996 0.0258514
541.4804 0.0258507
542.1611 0.0258498
542.8431 0.0258487
543.5257 0.0258487
544.208 0.0258487
544.8912 0.0258497
545.5753 0.0258502
546.2591 0.0258506
546.9396 0.0258511
547.622 0.0258509
548.3024 0.0258507
548.9874 0.0258507
549.6733 0.025851
550.3547 0.0258511
551.0404 0.025851
551.7207 0.0258508
552.4036 0.025851
553.4876 0.0258508
554.1714 0.0258501
554.8554 0.0258501
555.5409 0.0258493
556.2207 0.0258487
556.9049 0.0258443
557.5895 0.0258443
558.2729 0.0258435
558.9558 0.0258435
559.6395 0.0258431
560.322 0.0258432
561.0022 0.0258432
561.6837 0.0258438
562.3658 0.025844
563.0482 0.0258453
563.7307 0.0258455
564.413 0.025845
565.0936 0.0258455
565.7768 0.0258453
566.4588 0.0258455
567.1396 0.0258456
567.8224 0.0258459
568.9076 0.0258465
569.5954 0.0258459
570.276 0.0258453
570.9588 0.0258449
571.6419 0.0258445
572.3217 0.0258425
573.007 0.0258396
573.6895 0.0258386
574.3746 0.0258386
575.0545 0.0258386
575.7376 0.0258386
576.4176 0.0258386
577.1027 0.0258386
577.7833 0.0258387
578.4653 0.0258387
579.1455 0.0258389
579.8294 0.025839
580.5095 0.0258394
581.1913 0.0258394
581.8735 0.0258398
582.5579 0.0258404
583.2404 0.0258407
583.923 0.0258409
585.0116 0.0258409
585.6942 0.0258409
586.3759 0.0258409
587.0588 0.0258402
587.74 0.0258392
588.4213 0.0258353
589.104 0.0258344
589.7845 0.0258344
590.4687 0.0258343
591.1502 0.0258343
591.8311 0.0258343
592.515 0.0258346
593.1984 0.0258351
593.8814 0.0258355
594.5639 0.0258353
595.2491 0.0258353
595.9281 0.0258351
596.6105 0.0258348
597.2933 0.0258345
597.9753 0.0258342
598.6562 0.0258336
599.3403 0.0258335
600.424 0.0258335
601.1043 0.0258329
601.786 0.0258327
602.471 0.0258316
603.1517 0.0258316
603.8355 0.0258314
604.5182 0.0258316
605.2 0.0258316
605.8836 0.0258313
606.5658 0.0258304
607.2489 0.0258296
607.9343 0.0258309
608.6168 0.0258309
609.3014 0.0258306
609.985 0.0258306
610.6702 0.0258306
611.3514 0.0258308
612.0326 0.0258308
612.7134 0.0258311
613.3947 0.0258311
614.0793 0.0258315
614.7604 0.0258318
615.4445 0.0258321
616.5299 0.0258323
617.2129 0.0258323
617.8939 0.0258318
618.5763 0.0258311
619.2595 0.0258305
619.9432 0.025824
620.6249 0.0258233
621.3099 0.0258233
621.9912 0.0258226
622.6735 0.0258223
623.3571 0.0258223
624.0397 0.0258224
624.7229 0.0258223
625.4047 0.0258223
626.0864 0.0258223
626.7686 0.0258225
627.4514 0.0258228
628.1335 0.0258228
628.8138 0.0258233
629.4982 0.025824
630.1786 0.0258241
630.8618 0.0258241
631.9459 0.0258241
632.6288 0.025824
633.3138 0.0258238
633.9965 0.0258238
634.6797 0.0258223
635.3633 0.0258208
636.0441 0.0258197
636.7261 0.0258194
637.4099 0.0258194
638.0915 0.0258188
638.7738 0.0258181
639.4563 0.0258181
640.1397 0.0258182
640.8202 0.0258179
641.5046 0.0258179
642.1893 0.0258179
642.8698 0.0258179
643.553 0.0258179
644.2359 0.0258179
644.9182 0.0258182
645.6013 0.0258186
646.2837 0.025819
646.9684 0.02582
648.0531 0.0258201
648.7349 0.02582
649.4175 0.02582
650.1006 0.02582
650.7855 0.0258192
651.4665 0.0258145
652.1476 0.0258145
652.8294 0.0258145
653.5113 0.0258144
654.1959 0.0258142
654.8788 0.0258143
655.5622 0.0258145
656.2435 0.0258145
656.9258 0.0258146
657.6088 0.0258151
658.2906 0.0258156
658.9724 0.0258156
659.6538 0.0258156
660.3366 0.0258156
661.0211 0.0258156
661.7018 0.0258152
662.3841 0.0258152
663.4706 0.0258152
664.1545 0.0258131
664.8373 0.0258125
665.52 0.0258115
666.2041 0.0258104
666.8873 0.0258082
667.57 0.0258082
668.2553 0.0258081
668.9375 0.0258079
669.6207 0.025808
670.3008 0.0258081
670.9873 0.0258084
671.6674 0.0258085
672.3511 0.0258085
673.0357 0.0258092
673.7167 0.0258095
674.3969 0.0258102
675.0782 0.0258102
675.7574 0.0258103
676.4394 0.0258106
677.1243 0.0258107
677.804 0.0258106
678.4883 0.0258106
679.572 0.0258106
680.2553 0.0258102
680.939 0.0258088
681.62 0.025808
682.3044 0.025808
682.9888 0.0258079
683.672 0.0258071
684.3562 0.0258067
685.0391 0.0258067
685.7226 0.0258067
686.4055 0.0258071
687.0862 0.0258076
687.7695 0.0258082
688.4528 0.0258088
689.1378 0.0258093
689.8197 0.0258095
690.505 0.0258098
691.1902 0.0258099
691.8702 0.0258101
692.552 0.0258102
693.2351 0.0258109
693.9166 0.0258112
695.0025 0.0258116
695.6843 0.0258116
696.3685 0.0258115
697.0496 0.0258114
697.731 0.0258111
698.4136 0.0258068
699.1003 0.0258022
699.7844 0.0258009