File: adquisiciones/GaN uvvis/bajadas/estab_post_360.txt
69.31117 0.0259344
69.99565 0.0259344
70.68081 0.0259344
71.36892 0.0259347
72.05461 0.0259378
72.73919 0.0259385
73.42371 0.0259397
74.10948 0.0259406
74.79724 0.0259408
75.48631 0.0259408
76.17185 0.0259408
76.85621 0.0259406
77.53933 0.0259405
78.22344 0.0259404
78.90911 0.0259401
79.99616 0.0259394
80.68108 0.0259384
81.36479 0.0259377
82.05025 0.0259361
82.73141 0.0259356
83.41367 0.0259296
84.09981 0.0259285
84.78395 0.0259285
85.46718 0.0259285
86.15127 0.0259285
86.84038 0.0259287
87.52871 0.0259292
88.21019 0.0259292
88.89475 0.0259292
89.57767 0.025929
90.26257 0.025929
90.9467 0.0259288
91.62828 0.0259281
92.31215 0.0259275
92.99382 0.0259271
93.67767 0.0259266
94.36319 0.025926
95.4497 0.025924
96.13436 0.0259235
96.81967 0.0259231
97.50401 0.025922
98.1881 0.0259206
98.87434 0.0259178
99.55817 0.0259163
100.2438 0.0259162
100.9298 0.0259162
101.6131 0.0259155
102.2976 0.0259148
102.9783 0.0259148
103.661 0.0259148
104.3439 0.0259148
105.0295 0.0259143
105.7143 0.0259137
106.3986 0.0259131
107.0845 0.0259123
107.7707 0.0259113
108.4544 0.0259103
109.14 0.0259092
109.8257 0.0259092
110.5099 0.025909
111.5944 0.0259089
112.2802 0.0259086
112.9667 0.0259079
113.6516 0.0259066
114.3361 0.0259051
115.0198 0.0259004
115.7082 0.0258992
116.3948 0.0258982
117.0808 0.0258981
117.7667 0.0258976
118.448 0.0258979
119.1335 0.0258981
119.8182 0.0258984
120.5021 0.0258987
121.1858 0.0258989
121.8698 0.0258989
122.5553 0.0258991
123.2422 0.0258993
123.9248 0.0258991
124.6079 0.0258991
125.2946 0.0258987
125.9811 0.0258987
127.0691 0.025899
127.7572 0.0258987
128.4427 0.025898
129.1295 0.0258964
129.8131 0.0258948
130.5016 0.0258928
131.1889 0.0258922
131.8714 0.0258909
132.5531 0.0258883
133.2387 0.0258875
133.9225 0.025887
134.6053 0.025887
135.2864 0.0258872
135.9703 0.0258872
136.6547 0.0258872
137.338 0.0258872
138.0212 0.0258869
138.7073 0.025887
139.3929 0.0258874
140.0778 0.0258874
140.7617 0.0258874
141.4472 0.0258874
142.1333 0.0258872
143.2209 0.0258865
143.9018 0.025885
144.5852 0.0258843
145.2703 0.025883
145.9545 0.0258819
146.6363 0.0258789
147.3206 0.025878
148.0062 0.0258777
148.6903 0.0258772
149.3739 0.0258767
150.0578 0.0258761
150.7443 0.0258761
151.4326 0.0258761
152.1174 0.0258755
152.8014 0.025875
153.4906 0.0258749
154.1744 0.0258748
154.8581 0.0258743
155.542 0.0258737
156.2273 0.0258737
156.9151 0.0258725
157.5999 0.0258719
158.6871 0.0258709
159.3713 0.0258706
160.0568 0.0258702
160.7425 0.0258695
161.4263 0.0258689
162.1118 0.0258682
162.7982 0.025867
163.4844 0.0258661
164.1673 0.0258656
164.8503 0.0258656
165.5381 0.0258656
166.2196 0.025866
166.9041 0.0258664
167.5854 0.0258667
168.2699 0.025867
168.9562 0.0258667
169.6419 0.0258667
170.327 0.0258666
171.0127 0.0258666
171.6978 0.0258665
172.3789 0.0258655
173.0598 0.0258643
173.7419 0.0258637
174.8332 0.0258629
175.5162 0.0258619
176.203 0.0258615
176.8875 0.0258601
177.5708 0.025859
178.256 0.0258586
178.9433 0.0258575
179.6296 0.0258567
180.3168 0.0258565
181.0018 0.0258564
181.6886 0.0258563
182.3736 0.0258563
183.0602 0.0258563
183.7451 0.0258561
184.4298 0.0258554
185.117 0.0258544
185.8027 0.025854
186.4871 0.0258535
187.1731 0.0258528
187.8561 0.0258522
188.5405 0.0258506
189.2262 0.0258503
190.3141 0.0258496
190.9997 0.0258486
191.6844 0.0258484
192.3688 0.0258484
193.0543 0.0258479
193.7367 0.0258445
194.42 0.0258409
195.1072 0.0258409
195.7917 0.0258409
196.4758 0.0258409
197.1604 0.0258405
197.8467 0.0258405
198.5321 0.0258409
199.2152 0.0258405
199.9033 0.02584
200.5898 0.0258406
201.2722 0.025841
201.9556 0.0258404
202.6411 0.02584
203.3255 0.0258398
204.0081 0.0258397
204.6916 0.0258397
205.3752 0.0258396
206.4639 0.0258394
207.1455 0.0258394
207.8296 0.0258391
208.5152 0.0258384
209.2006 0.0258378
209.8854 0.0258339
210.6077 0.0258315
211.2892 0.0258302
211.974 0.0258285
212.6576 0.0258274
213.3415 0.025827
214.0258 0.0258274
214.7119 0.0258274
215.3972 0.025827
216.0818 0.0258266
216.7662 0.0258265
217.4521 0.0258269
218.1371 0.0258273
218.8201 0.0258274
219.5073 0.0258276
220.1921 0.0258279
220.8745 0.0258282
221.9607 0.0258289
222.6432 0.0258287
223.3255 0.0258287
224.0104 0.0258283
224.6938 0.025828
225.3775 0.0258281
226.0641 0.0258288
226.7491 0.0258283
227.4354 0.025828
228.1213 0.0258274
228.8064 0.0258268
229.491 0.0258268
230.1752 0.0258274
230.8601 0.0258267
231.5459 0.0258265
232.2288 0.0258264
232.9411 0.0258263
233.6272 0.0258264
234.3128 0.025826
234.9966 0.0258257
235.6792 0.0258256
236.3613 0.0258255
237.0436 0.0258251
238.1285 0.0258249
238.8122 0.0258244
239.4952 0.0258241
240.1774 0.025824
240.8596 0.0258227
241.544 0.0258205
242.2265 0.0258205
242.9108 0.0258199
243.5941 0.0258199
244.2789 0.0258199
244.9662 0.0258207
245.652 0.0258212
246.336 0.0258212
247.0209 0.0258213
247.7043 0.0258217
248.3871 0.0258217
249.072 0.0258211
249.7538 0.0258211
250.4382 0.0258211
251.1194 0.0258211
251.8033 0.0258208
252.4846 0.0258205
253.5723 0.0258201
254.2568 0.02582
254.9376 0.0258193
255.6224 0.0258188
256.3083 0.0258174
256.9908 0.0258161
257.6765 0.0258121
258.3633 0.0258111
259.0458 0.0258105
259.728 0.0258093
260.4122 0.0258079
261.0937 0.0258082
261.7756 0.0258082
262.4598 0.0258082
263.143 0.0258082
263.8282 0.0258082
264.5137 0.0258082
265.1945 0.0258094
265.8774 0.0258096
266.5618 0.0258098
267.2457 0.02581
267.932 0.0258103
268.6174 0.0258106
269.7022 0.0258106
270.3857 0.0258103
271.0701 0.02581
271.7538 0.02581
272.4385 0.0258096
273.1183 0.0258073
273.7986 0.0258056
274.4801 0.0258056
275.1617 0.025805
275.8432 0.025805
276.5286 0.025805
277.2139 0.0258056
277.8953 0.0258064
278.5785 0.0258064
279.261 0.0258069
279.9449 0.0258066
280.6263 0.0258068
281.3116 0.0258066
281.9975 0.0258068
282.6838 0.0258069
283.3657 0.0258069
284.0507 0.0258069
285.1372 0.0258068
285.82 0.0258068
286.5032 0.0258066
287.1862 0.025806
287.8664 0.0258048
288.5491 0.0258006
289.2309 0.0257992
289.9143 0.0257988
290.5967 0.0257986
291.2779 0.0257982
291.9613 0.0257982
292.6435 0.0257986
293.3257 0.0257988
294.0062 0.0257998
294.6854 0.0258005
295.3706 0.0258006
296.0534 0.0258008
296.7382 0.0258013
297.4222 0.0258014
298.1037 0.0258014
298.7865 0.0258013
299.468 0.025801
300.1506 0.0258008
301.2338 0.0258007
301.916 0.0258006
302.5976 0.0258005
303.2787 0.0257997
303.9621 0.0257988
304.6446 0.0257981
305.3288 0.0257979
306.0098 0.0257977
306.6943 0.025797
307.3747 0.0257967
308.0582 0.0257967
308.7402 0.0257974
309.4228 0.0257977
310.1054 0.0257978
310.7882 0.0257979
311.4675 0.025798
312.152 0.0257984
312.8316 0.0257989
313.5136 0.0257989
314.1939 0.025799
314.8758 0.0257991
315.5556 0.0257989
316.6399 0.0257988
317.3226 0.0257987
318.0072 0.0257984
318.6885 0.025798
319.37 0.0257971
320.0537 0.0257936
320.734 0.0257889
321.4173 0.025788
322.1023 0.0257873
322.7848 0.0257871
323.4672 0.0257871
324.1475 0.0257871
324.8304 0.0257871
325.5135 0.0257871
326.1945 0.0257872
326.8764 0.0257874
327.5608 0.0257877
328.2429 0.0257877
328.9232 0.0257882
329.6071 0.0257884
330.2897 0.0257891
330.9737 0.0257901
331.6561 0.0257908
332.7401 0.0257908
333.4218 0.0257906
334.1058 0.0257906
334.7899 0.0257906
335.472 0.0257903
336.1549 0.0257824
336.8371 0.0257824
337.5196 0.0257824
338.204 0.0257824
338.8849 0.0257824
339.5684 0.0257827
340.2501 0.0257848
340.9312 0.0257852
341.615 0.0257853
342.2971 0.0257853
342.9785 0.0257855
343.6607 0.0257856
344.3452 0.0257856
345.0268 0.0257853
345.71 0.0257852
346.3901 0.0257846
347.0732 0.0257844
348.1611 0.0257839
348.8431 0.0257836
349.5218 0.0257825
350.2057 0.0257814
350.8887 0.0257802
351.5704 0.0257777
352.2511 0.0257777
352.9331 0.0257759
353.6149 0.0257745
354.2988 0.0257743
354.9794 0.025774
355.6635 0.0257742
356.3453 0.0257743
357.0267 0.0257742
357.712 0.0257738
358.397 0.025773
359.0777 0.0257723
359.7589 0.025772
360.4392 0.0257719
361.1214 0.0257713
361.8035 0.0257703
362.4859 0.0257697
363.1712 0.0257695
364.2573 0.0257691
364.9378 0.0257689
365.6192 0.0257679
366.3011 0.0257667
366.9826 0.0257655
367.6636 0.0257649
368.3454 0.0257649
369.0276 0.0257646
369.7102 0.0257646
370.3948 0.0257646
371.077 0.0257649
371.7592 0.0257651
372.4421 0.0257652
373.126 0.0257669
373.8068 0.0257683
374.4881 0.0257694
375.1694 0.0257701
375.8516 0.0257701
376.5365 0.0257705
377.2183 0.0257706
377.8995 0.0257706
378.5817 0.0257706
379.6694 0.0257699
380.3532 0.0257689
381.0367 0.0257685
381.7216 0.0257683
382.4056 0.0257679
383.089 0.0257676
383.7724 0.0257674
384.4544 0.0257672
385.1366 0.0257672
385.8192 0.0257671
386.5001 0.0257671
387.1823 0.0257672
387.8645 0.0257673
388.547 0.0257676
389.2282 0.0257679
389.9107 0.0257686
390.5945 0.0257691
391.2769 0.0257694
391.9595 0.0257692
392.6418 0.0257697
393.3241 0.0257695
394.0061 0.02577
394.6863 0.0257704
395.7699 0.0257704
396.4535 0.02577
397.1349 0.0257697
397.8153 0.0257693
398.4958 0.0257685
399.1789 0.025764
399.8642 0.0257637
400.5473 0.0257634
401.2293 0.0257634
401.9124 0.0257634
402.5952 0.0257636
403.279 0.025764
403.9621 0.0257651
404.6428 0.0257658
405.3258 0.0257661
406.0088 0.0257662
406.6901 0.0257662
407.3729 0.0257662
408.0553 0.0257659
408.7402 0.0257652
409.4214 0.0257649
410.1012 0.0257647
411.1874 0.0257641
411.8694 0.0257639
412.5527 0.0257634
413.2342 0.0257625
413.917 0.0257606
414.5991 0.0257575
415.2799 0.0257551
415.9619 0.0257548
416.6436 0.0257541
417.3295 0.0257541
418.0116 0.0257541
418.6952 0.0257548
419.379 0.0257552
420.0601 0.0257553
420.7419 0.0257553
421.4232 0.025756
422.1051 0.0257567
422.7879 0.0257571
423.4704 0.0257571
424.1512 0.025757
424.833 0.0257569
425.5165 0.0257564
426.2017 0.0257559
427.2863 0.0257554
427.9681 0.0257545
428.6538 0.0257532
429.3377 0.025753
430.0201 0.0257522
430.7024 0.0257509
431.3833 0.0257504
432.0646 0.0257504
432.7457 0.0257497
433.4301 0.0257497
434.1154 0.0257499
434.7947 0.0257504
435.4759 0.0257508
436.1583 0.0257512
436.8391 0.0257516
437.5213 0.0257519
438.2027 0.0257528
438.885 0.0257532
439.5668 0.0257543
440.2499 0.0257551
440.9304 0.0257553
441.6137 0.0257559
442.698 0.0257574
443.3826 0.0257574
444.0627 0.0257574
444.7461 0.0257574
445.4265 0.0257574
446.1076 0.0257586
446.7923 0.0257552
447.4739 0.0257545
448.156 0.0257543
448.8392 0.0257535
449.521 0.0257531
450.2035 0.0257535
450.8868 0.0257535
451.573 0.0257539
452.258 0.025754
452.9398 0.025754
453.664 0.0257534
454.3497 0.025753
455.0331 0.0257527
455.7152 0.0257527
456.4 0.0257527
457.081 0.0257527
457.7653 0.0257531
458.8489 0.025753
459.531 0.0257523
460.2157 0.0257515
460.9018 0.0257515
461.5832 0.0257515
462.2638 0.0257515
462.9442 0.0257509
463.6276 0.0257483
464.3067 0.0257477
464.9902 0.0257472
465.673 0.0257468
466.3552 0.0257469
467.0391 0.0257472
467.7201 0.0257469
468.401 0.0257465
469.0822 0.0257461
469.7638 0.0257455
470.4443 0.0257449
471.1264 0.0257448
471.8098 0.0257448
472.4935 0.0257448
473.1759 0.0257447
474.2631 0.0257447
474.9469 0.0257445
475.6319 0.0257442
476.3152 0.0257442
476.9957 0.0257442
477.6778 0.0257436
478.3614 0.0257396
479.0432 0.0257391
479.7256 0.0257385
480.4072 0.0257383
481.0897 0.0257375
481.7741 0.0257382
482.4592 0.0257382
483.1417 0.0257382
483.8233 0.0257382
484.5084 0.0257382
485.191 0.0257387
485.875 0.0257392
486.5567 0.0257398
487.2416 0.0257407
487.9246 0.0257414
488.6058 0.0257417
489.2873 0.025742
490.3737 0.0257419
491.0578 0.0257416
491.7377 0.0257414
492.4192 0.0257414
493.1041 0.0257405
493.7891 0.0257405
494.4705 0.0257405
495.1524 0.0257407
495.8374 0.0257418
496.5241 0.0257416
497.2076 0.0257422
497.8913 0.0257422
498.5755 0.0257422
499.2585 0.0257422
499.9415 0.0257422
500.6213 0.0257418
501.3054 0.0257415
501.9903 0.0257412
502.6727 0.0257412
503.3564 0.0257411
504.039 0.0257411
504.7207 0.0257411
505.809 0.0257409
506.4903 0.0257405
507.1711 0.0257401
507.8544 0.0257401
508.5366 0.0257399
509.2201 0.0257376
509.9054 0.025737
510.5928 0.0257366
511.2752 0.0257359
511.9588 0.0257356
512.641 0.025735
513.3275 0.0257356
514.0105 0.0257361
514.6916 0.0257366
515.374 0.0257368
516.0555 0.0257366
516.736 0.0257361
517.4178 0.025736
518.0999 0.0257359
518.7824 0.0257358
519.4636 0.0257359
520.1454 0.025736
520.8269 0.0257358
521.9143 0.0257355
522.6013 0.0257352
523.2807 0.0257349
523.963 0.0257344
524.6443 0.0257338
525.3256 0.0257302
526.0072 0.0257296
526.6903 0.0257293
527.3768 0.0257292
528.0574 0.0257292
528.7367 0.0257292
529.4203 0.0257292
530.1029 0.0257293
530.7873 0.0257293
531.4681 0.0257293
532.1494 0.0257295
532.8334 0.0257296
533.5129 0.0257296
534.1952 0.0257296
534.8771 0.0257296
535.5578 0.0257297
536.2395 0.0257297
537.3243 0.0257303
538.0064 0.0257303
538.6879 0.0257303
539.3703 0.0257295
540.0528 0.0257284
540.7363 0.0257249
541.4178 0.0257236
542.1016 0.0257236
542.784 0.025723
543.4681 0.025723
544.1498 0.0257227
544.8304 0.0257227
545.5139 0.0257227
546.1974 0.0257227
546.8799 0.0257224
547.5621 0.0257224
548.2449 0.0257217
548.9279 0.0257216
549.61 0.0257209
550.2964 0.0257203
550.9809 0.0257201
551.6632 0.0257197
552.345 0.0257197
553.4328 0.0257197
554.117 0.0257196
554.7999 0.0257194
555.4811 0.0257191
556.1654 0.0257181
556.8466 0.0257156
557.5302 0.0257156
558.2108 0.0257155
558.8966 0.0257152
559.579 0.0257152
560.2591 0.0257152
560.942 0.0257152
561.6256 0.0257155
562.3088 0.0257155
562.9905 0.0257155
563.6742 0.0257153
564.3562 0.0257153
565.0386 0.025715
565.7241 0.0257151
566.406 0.0257151
567.0908 0.0257154
567.7749 0.0257158
568.8613 0.0257161
569.5451 0.0257161
570.2255 0.0257161
570.9101 0.0257158
571.5936 0.0257149
572.2777 0.0257142
572.9614 0.0257125
573.6454 0.0257125
574.327 0.0257125
575.0076 0.0257125
575.6889 0.0257125
576.3708 0.0257167
577.052 0.0257181
577.7339 0.0257188
578.4167 0.0257195
579.1007 0.0257198
579.784 0.0257198
580.4679 0.0257198
581.1532 0.0257198
581.8347 0.0257198
582.5181 0.0257196
583.1994 0.0257196
583.8843 0.025719
584.977 0.0257189
585.6613 0.0257177
586.3459 0.0257172
587.0302 0.0257172
587.7113 0.0257171
588.3957 0.0257165
589.0795 0.025716
589.7614 0.025716
590.4453 0.025716
591.1272 0.025716
591.8108 0.0257168
592.4945 0.0257185
593.1755 0.0257186
593.8584 0.0257186
594.5392 0.0257184
595.2198 0.0257184
595.8986 0.0257188
596.5839 0.0257188
597.2655 0.025719
597.9503 0.0257192
598.6341 0.0257192
599.3166 0.025719
600.4031 0.0257196
601.0877 0.0257196
601.7695 0.0257196
602.4503 0.0257196
603.1338 0.0257192
603.8154 0.0257189
604.4975 0.0257187
605.1821 0.0257187
605.8655 0.0257187
606.5471 0.0257181
607.2305 0.0257169
607.9158 0.0257169
608.597 0.0257169
609.2795 0.0257169
609.9646 0.0257165
610.6454 0.0257138
611.328 0.0257125
612.0093 0.025712
612.6941 0.0257119
613.3754 0.0257116
614.0577 0.0257116
614.7403 0.0257116
615.4196 0.0257118
616.5062 0.0257113
617.1876 0.025711
617.8697 0.025711
618.5501 0.0257108
619.2319 0.0257094
619.9149 0.025705
620.5997 0.0257048
621.2837 0.0257048
621.9694 0.0257048
622.6538 0.0257048
623.3369 0.025705
624.0217 0.025707
624.7063 0.0257082
625.3916 0.0257098
626.0734 0.0257106
626.756 0.0257138
627.438 0.0257142
628.1188 0.0257145
628.7988 0.0257145
629.4817 0.0257145
630.164 0.0257145
630.8464 0.0257145
631.9306 0.0257144
632.6134 0.0257137
633.2943 0.0257127
633.9753 0.0257123
634.6585 0.0257116
635.3413 0.0257115
636.0243 0.0257113
636.7048 0.0257117
637.3895 0.0257108
638.0723 0.0257105
638.7532 0.0257104
639.4371 0.0257105
640.1177 0.0257109
640.7986 0.0257109
641.48 0.0257113
642.1614 0.0257113
642.8445 0.0257119
643.5306 0.0257109
644.2129 0.0257117
644.8948 0.0257119
645.5773 0.0257121
646.2607 0.0257121
646.9414 0.0257121
648.0278 0.0257121
648.7075 0.0257119
649.3963 0.0257107
650.0788 0.0257104
650.7603 0.0257092
651.4426 0.0257083
652.1266 0.025708
652.8083 0.025708
653.4928 0.0257079
654.1766 0.0257075
654.8612 0.0257079
655.5452 0.0257079
656.2262 0.025708
656.907 0.025708
657.5921 0.025708
658.2756 0.0257072
658.9586 0.0257064
659.6427 0.0257056
660.3254 0.0257044
661.0053 0.0257028
661.6875 0.0257025
662.3701 0.0257021
663.4542 0.0257021
664.1359 0.0256997
664.8177 0.0256988
665.4995 0.0256984
666.1844 0.0256996
666.8665 0.0257016
667.5472 0.0257016
668.2316 0.0257016
668.9155 0.0257014
669.5999 0.0257005
670.2811 0.0257
670.9646 0.0257
671.6488 0.0257
672.3334 0.0257002
673.0173 0.0257002
673.7004 0.0256999
674.3848 0.0256999
675.0687 0.0256999
675.7519 0.0256999
676.4331 0.025701
677.1165 0.0257017
677.8007 0.0257024
678.481 0.0257028
679.5659 0.0257028
680.2458 0.0257024
680.9301 0.0257024
681.6105 0.0257022
682.2943 0.0257011
682.9765 0.0257007
683.6608 0.0257005
684.3421 0.0257005
685.022 0.0257004
685.7076 0.0257004
686.3912 0.0257007
687.0723 0.0257011
687.7534 0.0257011
688.4355 0.0257011
689.1185 0.0257012
689.7996 0.025701
690.4794 0.0257009
691.1653 0.0257006
691.8491 0.0257001
692.5351 0.0256996
693.2193 0.0256991
693.9005 0.0256988
694.9853 0.0256982
695.6658 0.0256979
696.3492 0.0256974
697.0334 0.0256974
697.7545 0.0256965
698.437 0.0256931
699.1183 0.0256899
699.7999 0.0256899