File: adquisiciones/GaN uvvis/bajadas/estab_post_340.txt
69.30322 0.0260038
69.98818 0.0260011
70.67506 0.0260009
71.36227 0.0260007
72.04435 0.0260007
72.72913 0.0260002
73.41409 0.0260004
74.09794 0.0260004
74.78521 0.026
75.47493 0.0260004
76.16107 0.0260008
76.84339 0.026
77.52791 0.0259997
78.21289 0.0259995
78.90084 0.0259988
79.59025 0.0259985
80.27472 0.0259977
80.95943 0.0259969
82.04516 0.0259971
82.72907 0.0259967
83.41126 0.0259965
84.09493 0.0259955
84.77975 0.0259952
85.46633 0.025988
86.15044 0.0259865
86.83344 0.0259865
87.52068 0.0259865
88.20337 0.0259858
88.88803 0.0259855
89.56883 0.0259855
90.2529 0.0259855
90.9381 0.0259857
91.62246 0.0259851
92.3059 0.0259845
92.99204 0.0259843
93.67543 0.0259841
94.35939 0.0259832
95.0456 0.0259824
95.73297 0.025982
96.41315 0.0259817
97.50122 0.025981
98.18315 0.0259797
98.8656 0.0259791
99.55058 0.0259784
100.2389 0.0259779
100.9267 0.0259742
101.6093 0.025972
102.2932 0.0259719
102.9783 0.0259716
103.662 0.0259711
104.3477 0.0259707
105.0308 0.0259707
105.7137 0.0259711
106.3961 0.0259712
107.078 0.0259712
107.7634 0.0259709
108.4477 0.0259703
109.1758 0.0259703
109.8605 0.0259699
110.5466 0.0259695
111.2312 0.0259695
111.9182 0.0259689
112.6017 0.0259686
113.6872 0.0259678
114.3726 0.0259675
115.0591 0.0259674
115.7437 0.0259667
116.4292 0.0259637
117.1135 0.0259592
117.7994 0.0259574
118.4821 0.0259557
119.1669 0.0259551
119.8554 0.0259551
120.5393 0.025955
121.2234 0.025955
121.9087 0.025955
122.5927 0.0259541
123.2801 0.0259535
123.9656 0.0259534
124.6507 0.0259532
125.3364 0.0259529
126.0228 0.0259523
126.7089 0.0259521
127.3943 0.0259521
128.0798 0.0259513
129.1688 0.0259498
129.8572 0.0259493
130.544 0.0259486
131.2285 0.0259483
131.9127 0.0259473
132.5984 0.0259435
133.2812 0.0259413
133.9682 0.0259401
134.6528 0.0259393
135.3387 0.025939
136.0278 0.0259387
136.7143 0.0259389
137.3999 0.0259389
138.086 0.0259382
138.7718 0.0259377
139.453 0.0259373
140.1388 0.0259372
140.8236 0.0259365
141.5077 0.0259356
142.1891 0.0259356
142.8744 0.0259347
143.5623 0.0259339
144.2473 0.025933
145.3347 0.0259308
146.0173 0.0259303
146.7036 0.0259286
147.3874 0.0259265
148.07 0.0259259
148.7532 0.0259251
149.4353 0.025924
150.1212 0.0259239
150.8069 0.0259239
151.4914 0.0259239
152.175 0.025924
152.8611 0.0259255
153.5477 0.0259266
154.2307 0.0259274
154.9198 0.0259271
155.6029 0.0259271
156.2858 0.0259271
156.9706 0.0259274
157.6548 0.0259274
158.3452 0.0259271
159.0321 0.0259262
159.7153 0.0259262
160.8018 0.0259262
161.487 0.0259258
162.1707 0.0259257
162.855 0.0259256
163.5397 0.0259242
164.2242 0.025923
164.9099 0.0259224
165.5933 0.0259224
166.2753 0.0259224
166.9568 0.0259221
167.6451 0.025922
168.33 0.0259221
169.014 0.0259221
169.6972 0.0259221
170.3829 0.0259221
171.0674 0.0259221
171.7508 0.0259219
172.4364 0.025919
173.122 0.0259175
173.806 0.0259174
174.4943 0.0259173
175.1789 0.0259167
175.8615 0.0259164
176.9452 0.0259159
177.6321 0.0259157
178.3198 0.025915
179.0056 0.0259148
179.6877 0.0259131
180.3721 0.0259101
181.0572 0.0259085
181.7416 0.0259083
182.4306 0.0259081
183.1135 0.0259079
183.798 0.0259077
184.4794 0.0259077
185.164 0.0259074
185.848 0.0259072
186.5318 0.025907
187.2139 0.025907
187.8979 0.0259074
188.5841 0.0259069
189.2688 0.0259068
189.9535 0.0259068
190.6357 0.0259071
191.3216 0.0259076
192.4059 0.0259076
193.0869 0.0259076
193.7714 0.0259073
194.4586 0.0259069
195.1477 0.025906
195.83 0.0259031
196.5137 0.0258995
197.1963 0.0258982
197.8803 0.0258982
198.566 0.0258976
199.2535 0.0258976
199.9379 0.0258982
200.6238 0.0258988
201.3092 0.0258988
201.9909 0.0258991
202.6769 0.0258999
203.3612 0.0259002
204.0455 0.0259004
204.7296 0.0259008
205.4149 0.0259008
206.0983 0.0259004
206.7867 0.0259001
207.4696 0.0259
208.5617 0.0258999
209.2481 0.0258994
209.9309 0.0258985
210.6166 0.0258975
211.3012 0.0258948
211.9881 0.0258901
212.6725 0.0258896
213.358 0.0258889
214.0451 0.0258889
214.7329 0.0258889
215.4191 0.0258892
216.107 0.02589
216.7948 0.0258911
217.4789 0.0258924
218.1645 0.0258937
218.8514 0.0258944
219.5397 0.0258948
220.2207 0.0258948
220.9059 0.0258948
221.594 0.0258943
222.2809 0.0258935
222.9663 0.0258928
224.053 0.0258928
224.739 0.0258924
225.4237 0.0258918
226.106 0.0258913
226.7936 0.0258908
227.4781 0.0258897
228.164 0.0258894
228.8488 0.0258892
229.532 0.0258886
230.2157 0.0258882
230.9034 0.0258877
231.5835 0.0258877
232.2696 0.0258877
232.9824 0.0258877
233.6643 0.0258874
234.3474 0.0258873
235.0298 0.025886
235.7114 0.0258854
236.3934 0.0258853
237.0753 0.0258852
237.7572 0.0258852
238.4407 0.0258852
239.1215 0.0258854
240.2076 0.0258854
240.8967 0.0258851
241.584 0.0258843
242.2659 0.0258843
242.9524 0.0258836
243.6351 0.0258806
244.32 0.0258793
245.0035 0.025879
245.6839 0.0258788
246.372 0.0258785
247.0538 0.0258786
247.7406 0.0258786
248.4222 0.0258786
249.1067 0.0258785
249.7872 0.0258783
250.4696 0.0258775
251.1512 0.0258768
251.8339 0.0258753
252.5178 0.0258753
253.2032 0.0258752
253.8865 0.0258751
254.5687 0.025874
255.6532 0.0258735
256.336 0.0258729
257.0203 0.025872
257.7019 0.025872
258.383 0.0258717
259.065 0.0258701
259.7499 0.0258687
260.4331 0.0258687
261.1159 0.0258687
261.7982 0.0258682
262.4797 0.0258682
263.1617 0.0258685
263.8449 0.0258686
264.5285 0.0258687
265.212 0.0258687
265.8952 0.0258688
266.5752 0.0258689
267.2575 0.0258689
267.9384 0.0258689
268.6206 0.0258696
269.3025 0.0258713
269.9862 0.025872
270.668 0.0258726
271.7562 0.0258726
272.4383 0.0258726
273.122 0.0258725
273.8039 0.0258716
274.4865 0.0258714
275.1687 0.0258659
275.851 0.0258656
276.5357 0.0258653
277.2199 0.0258648
277.903 0.0258641
278.5833 0.0258642
279.2667 0.0258648
279.9487 0.0258651
280.6319 0.0258647
281.3149 0.0258646
281.999 0.0258646
282.6806 0.0258646
283.3618 0.0258646
284.0462 0.0258648
284.7282 0.0258649
285.4126 0.0258658
286.0965 0.0258658
287.183 0.0258662
287.8655 0.0258662
288.5495 0.0258658
289.2312 0.0258654
289.9131 0.0258646
290.5958 0.0258639
291.28 0.0258599
291.964 0.0258592
292.6495 0.0258592
293.3308 0.0258592
294.0127 0.0258592
294.6949 0.0258598
295.3806 0.0258604
296.0617 0.0258604
296.7458 0.0258606
297.4316 0.0258604
298.1113 0.0258605
298.7931 0.0258604
299.4769 0.0258603
300.1606 0.0258602
300.8457 0.0258602
301.5282 0.0258603
302.2106 0.0258609
303.2962 0.0258612
303.9779 0.0258605
304.6591 0.0258605
305.3408 0.0258597
306.0255 0.0258568
306.7083 0.025856
307.3905 0.0258558
308.0723 0.0258542
308.7533 0.025854
309.4348 0.025854
310.1167 0.0258538
310.7986 0.025854
311.4783 0.0258542
312.1612 0.0258542
312.8419 0.0258542
313.5243 0.025854
314.2053 0.0258536
314.8874 0.0258534
315.572 0.0258516
316.2577 0.025851
316.9446 0.02585
317.6274 0.025849
318.7123 0.0258489
319.3944 0.025848
320.0828 0.0258478
320.7663 0.0258476
321.4475 0.0258474
322.1309 0.0258466
322.8138 0.0258461
323.4966 0.0258461
324.18 0.0258464
324.8651 0.0258464
325.5467 0.0258464
326.228 0.0258468
326.9118 0.0258469
327.5949 0.0258473
328.2796 0.0258471
328.9644 0.0258471
329.6476 0.0258474
330.3298 0.0258468
331.013 0.0258466
331.6947 0.0258462
332.3789 0.0258452
333.0604 0.0258452
333.7409 0.0258451
334.8243 0.0258432
335.5055 0.0258425
336.1888 0.0258422
336.872 0.0258412
337.5539 0.0258404
338.2348 0.0258362
338.9171 0.0258352
339.5992 0.0258352
340.2841 0.0258352
340.968 0.0258352
341.6479 0.0258356
342.3283 0.0258356
343.0116 0.0258356
343.696 0.0258352
344.3771 0.0258356
345.057 0.025837
345.7397 0.0258371
346.4216 0.0258376
347.1063 0.0258379
347.7909 0.025838
348.4723 0.0258383
349.1545 0.0258386
350.24 0.0258389
350.9226 0.0258389
351.6047 0.0258389
352.286 0.0258387
353.0086 0.0258389
353.6919 0.025839
354.3765 0.025839
355.0586 0.025839
355.7407 0.0258381
356.4228 0.0258381
357.1061 0.0258381
357.7876 0.0258401
358.4693 0.0258411
359.154 0.0258418
359.8418 0.0258415
360.5257 0.0258423
361.2089 0.0258425
361.8896 0.0258423
362.5709 0.0258423
363.2552 0.0258423
363.9371 0.0258418
364.6209 0.0258405
365.3027 0.0258395
366.3864 0.0258388
367.0707 0.0258385
367.751 0.0258384
368.4345 0.0258382
369.1179 0.0258376
369.8017 0.0258374
370.4848 0.0258371
371.1672 0.0258351
371.8516 0.0258349
372.5316 0.0258342
373.2145 0.0258341
373.8972 0.0258342
374.5786 0.0258342
375.2602 0.0258341
375.9451 0.0258333
376.6272 0.0258322
377.3094 0.0258322
377.991 0.0258321
378.6734 0.0258319
379.3556 0.0258305
380.0409 0.0258276
380.7232 0.0258271
381.8091 0.0258268
382.4914 0.0258265
383.1724 0.0258262
383.8581 0.025825
384.5418 0.0258245
385.2236 0.0258222
385.9098 0.0258191
386.5931 0.0258191
387.2727 0.0258191
387.9563 0.0258191
388.6414 0.0258191
389.3233 0.0258192
390.0035 0.0258196
390.688 0.0258202
391.3688 0.0258202
392.0537 0.0258203
392.7374 0.0258209
393.4149 0.0258209
394.1 0.025821
394.7812 0.0258212
395.4625 0.0258216
396.1436 0.0258223
396.828 0.0258237
397.9129 0.0258239
398.5968 0.0258239
399.2788 0.0258239
399.9615 0.0258239
400.6433 0.0258229
401.3259 0.0258197
402.0072 0.0258193
402.6898 0.0258187
403.3723 0.0258187
404.0516 0.0258186
404.7322 0.0258189
405.4132 0.0258192
406.097 0.0258195
406.7813 0.0258199
407.4646 0.0258202
408.1454 0.0258204
408.8273 0.0258205
409.5108 0.0258209
410.1916 0.0258213
410.8765 0.0258215
411.5614 0.0258217
412.2463 0.0258221
413.3349 0.0258223
414.0166 0.0258219
414.6964 0.0258217
415.3781 0.0258217
416.0608 0.025821
416.7418 0.0258185
417.4248 0.0258156
418.1084 0.0258151
418.792 0.0258148
419.4726 0.0258148
420.1526 0.0258148
420.8359 0.0258156
421.5186 0.0258165
422.2012 0.0258183
422.8814 0.0258189
423.5661 0.0258194
424.2479 0.0258194
424.9322 0.0258194
425.6135 0.0258195
426.2966 0.0258195
426.9788 0.0258195
427.6625 0.0258195
428.3448 0.0258194
429.4314 0.0258194
430.115 0.0258192
430.7989 0.0258186
431.4811 0.0258182
432.1615 0.0258169
432.8458 0.0258129
433.5284 0.0258125
434.2105 0.0258121
434.8956 0.0258121
435.5791 0.0258121
436.2609 0.0258125
436.9448 0.0258125
437.6263 0.0258129
438.3087 0.0258131
438.9914 0.0258133
439.6759 0.0258133
440.3567 0.0258131
441.0393 0.0258131
441.7223 0.0258128
442.4036 0.0258121
443.0885 0.0258118
443.7721 0.0258116
444.8588 0.0258115
445.5435 0.025811
446.2251 0.0258095
446.9091 0.0258088
447.5887 0.0258074
448.2713 0.0258067
448.9546 0.0258067
449.6351 0.0258079
450.3175 0.0258082
451.0 0.0258082
451.6805 0.0258081
452.3609 0.0258086
453.0436 0.0258097
453.7235 0.0258104
454.4054 0.0258105
455.0876 0.0258113
455.7689 0.025812
456.4526 0.0258128
457.1346 0.025813
457.8204 0.0258132
458.5044 0.0258136
459.1861 0.0258138
459.8668 0.0258134
460.9523 0.0258134
461.6333 0.0258125
462.3161 0.0258122
463.0029 0.0258117
463.6832 0.0258106
464.3656 0.0258092
465.0483 0.0258078
465.7302 0.0258078
466.4113 0.0258078
467.0912 0.0258078
467.7731 0.0258078
468.4539 0.0258079
469.1323 0.0258079
469.8171 0.0258079
470.497 0.0258079
471.1801 0.0258074
471.8606 0.0258067
472.5414 0.0258061
473.2229 0.0258047
473.9044 0.0258043
474.5851 0.025804
475.2678 0.0258038
476.3521 0.0258036
477.0331 0.0258033
477.7135 0.0258023
478.3942 0.0258019
479.0793 0.0258014
479.7591 0.0258016
480.4418 0.0258013
481.1272 0.0258017
481.8126 0.0258017
482.4936 0.0258013
483.1752 0.0257994
483.8583 0.0257994
484.5415 0.0257994
485.2255 0.0258003
485.9111 0.0258014
486.5931 0.0258014
487.2752 0.0258016
487.9581 0.0258016
488.6408 0.0258016
489.3243 0.0258022
490.0097 0.0258031
490.6921 0.0258037
491.3735 0.0258037
492.4571 0.0258037
493.1373 0.0258037
493.8189 0.0258031
494.5041 0.0258026
495.1876 0.0258019
495.8699 0.0257942
496.5505 0.0257935
497.2323 0.0257933
497.9131 0.0257931
498.5938 0.0257931
499.2767 0.0257932
499.9595 0.0257934
500.6449 0.0257936
501.3258 0.025794
502.0076 0.0257961
502.6912 0.0257973
503.3755 0.0257986
504.0596 0.0257995
504.7429 0.0258013
505.4257 0.0258019
506.108 0.0258021
506.7915 0.0258022
507.8819 0.0258026
508.5626 0.0258023
509.2451 0.0258022
509.9271 0.0258021
510.6076 0.0258016
511.2894 0.0258013
511.972 0.0258012
512.656 0.0258008
513.3393 0.0258008
514.0217 0.0257999
514.7027 0.0257996
515.3854 0.0257999
516.0677 0.0258005
516.7491 0.0258009
517.4293 0.0258008
518.1147 0.0258006
518.7998 0.0258005
519.4806 0.0257999
520.1644 0.0257999
520.8457 0.0258006
521.5285 0.0258006
522.2107 0.0258003
522.8916 0.025799
523.9781 0.0257983
524.6615 0.0257982
525.3432 0.025798
526.027 0.025798
526.709 0.0257981
527.3878 0.0257976
528.0672 0.0257968
528.7486 0.0257961
529.4338 0.0257961
530.1157 0.0257953
530.7977 0.0257961
531.4795 0.0257968
532.1629 0.0257971
532.8474 0.0257971
533.532 0.0257966
534.2156 0.0257959
534.8979 0.0257959
535.5788 0.0257953
536.2618 0.0257949
536.9457 0.0257944
537.6279 0.0257934
538.3095 0.0257932
539.3938 0.0257929
540.0756 0.0257927
540.7583 0.0257923
541.4418 0.0257922
542.1247 0.0257922
542.8051 0.025789
543.4867 0.0257878
544.1687 0.0257861
544.8499 0.0257861
545.533 0.0257861
546.2159 0.0257861
546.9008 0.0257892
547.5851 0.0257895
548.2684 0.0257898
548.9484 0.0257913
549.63 0.0257913
550.3129 0.0257913
550.9952 0.0257913
551.6759 0.0257913
552.3584 0.0257912
553.0411 0.0257909
553.7251 0.0257905
554.4055 0.0257901
555.4902 0.0257899
556.173 0.0257897
556.8552 0.0257894
557.5348 0.0257888
558.217 0.0257878
558.9 0.0257824
559.5849 0.0257821
560.2666 0.0257821
560.9465 0.0257821
561.6276 0.0257821
562.312 0.0257823
562.993 0.0257833
563.678 0.0257843
564.3574 0.0257846
565.0384 0.0257854
565.7199 0.0257859
566.4005 0.0257865
567.0811 0.025787
567.7644 0.0257874
568.4475 0.0257877
569.1331 0.025788
569.817 0.0257882
570.903 0.0257883
571.5855 0.0257882
572.266 0.0257882
572.9489 0.025788
573.6313 0.0257877
574.3167 0.0257855
574.9996 0.0257845
575.6826 0.0257835
576.3654 0.0257829
577.0483 0.0257828
577.7324 0.0257828
578.4165 0.0257828
579.0989 0.0257828
579.7824 0.0257829
580.4649 0.0257828
581.1481 0.0257828
581.8287 0.0257829
582.5108 0.0257831
583.1931 0.0257837
583.8772 0.0257845
584.5592 0.0257843
585.2427 0.0257843
585.9215 0.0257843
587.0081 0.0257843
587.6885 0.0257843
588.372 0.025784
589.0546 0.0257835
589.7401 0.0257829
590.4225 0.0257816
591.1056 0.0257801
591.7878 0.0257796
592.4706 0.025778
593.1556 0.025777
593.8368 0.0257774
594.5193 0.0257779
595.2012 0.0257779
595.8846 0.0257779
596.609 0.0257779
597.2922 0.0257779
597.9738 0.0257784
598.6565 0.0257789
599.34 0.0257798
600.0256 0.0257798
600.7064 0.0257801
601.3884 0.0257801
602.4737 0.0257801
603.1588 0.0257798
603.8395 0.0257796
604.5229 0.0257784
605.2055 0.0257777
605.8871 0.0257745
606.5703 0.0257745
607.2526 0.0257743
607.9354 0.0257732
608.619 0.0257729
609.3048 0.0257728
609.9877 0.0257731
610.6682 0.0257735
611.3513 0.0257746
612.034 0.0257751
612.7155 0.0257755
613.3966 0.0257755
614.081 0.0257758
614.7627 0.0257787
615.4446 0.0257793
616.1269 0.0257796
616.8077 0.0257796
617.4909 0.0257796
618.5783 0.0257799
619.2613 0.0257793
619.944 0.0257787
620.6269 0.0257774
621.3081 0.025776
621.9891 0.0257737
622.6699 0.0257726
623.3507 0.0257723
624.0356 0.0257723
624.7215 0.0257723
625.4042 0.0257727
626.0854 0.0257727
626.77 0.0257727
627.4516 0.0257727
628.136 0.0257727
628.8178 0.0257727
629.4991 0.0257732
630.1841 0.0257734
630.8642 0.0257734
631.5479 0.0257724
632.2303 0.0257724
632.9112 0.0257734
633.998 0.0257736
634.6825 0.0257735
635.3654 0.0257735
636.051 0.025773
636.7334 0.0257725
637.4178 0.0257725
638.1004 0.0257724
638.7817 0.0257728
639.4649 0.0257724
640.1483 0.0257724
640.8309 0.0257726
641.5149 0.0257735
642.1968 0.0257741
642.8824 0.0257741
643.5666 0.025774
644.2494 0.0257731
644.9316 0.025773
645.6131 0.0257729
646.2948 0.0257725
646.976 0.0257721
647.6583 0.0257718
648.343 0.0257716
649.0255 0.0257716
650.112 0.0257711
650.7944 0.0257711
651.476 0.0257708
652.1571 0.0257702
652.8411 0.0257693
653.5236 0.0257641
654.2079 0.0257636
654.8898 0.0257631
655.5731 0.0257631
656.2531 0.0257631
656.9352 0.0257632
657.6178 0.0257633
658.3002 0.0257635
658.9858 0.0257635
659.6666 0.0257637
660.3492 0.025764
661.0339 0.0257641
661.7155 0.025764
662.3981 0.0257641
663.082 0.0257644
663.7674 0.0257644
664.4478 0.0257647
665.5327 0.0257647
666.2138 0.0257646
666.8974 0.0257641
667.5804 0.0257638
668.2628 0.0257633
668.9444 0.025762
669.6262 0.0257604
670.31 0.0257604
670.991 0.0257604
671.6761 0.0257604
672.3571 0.0257604
673.0392 0.0257618
673.7196 0.0257621
674.4023 0.0257622
675.086 0.0257628
675.7679 0.0257634
676.4506 0.0257639
677.1352 0.0257649
677.8159 0.0257649
678.4975 0.0257654
679.1829 0.0257654
679.868 0.0257661
680.5499 0.0257661
681.6356 0.0257661
682.3177 0.0257655
683.0001 0.0257652
683.6862 0.0257645
684.3712 0.0257633
685.0534 0.0257628
685.7389 0.0257628
686.4234 0.0257628
687.1043 0.0257623
687.7866 0.0257593
688.468 0.0257593
689.1505 0.0257596
689.8346 0.0257596
690.5141 0.0257598
691.1983 0.0257592
691.8796 0.0257587
692.5598 0.0257585
693.2441 0.0257582
693.9256 0.0257582
694.6072 0.0257576
695.2912 0.0257576
695.9738 0.0257573
697.0591 0.0257569
697.7407 0.0257563
698.4212 0.0257558
699.1061 0.0257554
699.7878 0.0257547