File: adquisiciones/GaN uvvis/bajadas/estab_post_300.txt
69.35845 0.0262464
70.04186 0.0262461
70.72604 0.0262431
71.41383 0.0262431
72.09989 0.0262396
72.7864 0.0262384
73.47147 0.0262376
74.1577 0.0262362
74.84324 0.0262339
75.52722 0.0262333
76.20976 0.0262327
76.89459 0.0262316
77.57697 0.0262305
78.26092 0.0262298
78.94407 0.0262281
80.03149 0.0262275
80.72084 0.0262242
81.40201 0.0262217
82.08775 0.0262199
82.77336 0.0262186
83.46441 0.0262094
84.15332 0.0262081
84.83881 0.0262075
85.52355 0.0262074
86.20904 0.0262063
86.89077 0.0262062
87.57577 0.0262062
88.25835 0.0262062
88.94376 0.0262056
89.62701 0.0262038
90.31291 0.0262031
90.99813 0.0262031
91.68472 0.0262019
92.36888 0.0262012
93.05122 0.0261999
93.7347 0.0261994
94.41924 0.0261978
95.50628 0.0261953
96.19139 0.026192
96.87828 0.0261903
97.56405 0.0261887
98.25137 0.0261879
98.9362 0.0261829
99.62002 0.0261757
100.3072 0.0261751
100.9973 0.0261742
101.6789 0.0261731
102.3631 0.0261721
103.0481 0.0261721
103.7298 0.0261721
104.4167 0.0261716
105.1026 0.0261707
105.7858 0.0261703
106.4711 0.0261692
107.1572 0.0261682
107.8469 0.0261678
108.5321 0.026165
109.2158 0.0261639
109.8993 0.0261631
110.5858 0.0261627
111.6726 0.0261621
112.3543 0.0261602
113.0405 0.0261594
113.7245 0.0261589
114.4085 0.0261575
115.0919 0.0261514
115.7774 0.0261509
116.4646 0.0261509
117.1509 0.0261505
117.8366 0.0261505
118.5223 0.0261503
119.2112 0.0261503
119.8918 0.0261503
120.5787 0.0261503
121.2674 0.0261482
121.9526 0.0261444
122.6357 0.0261408
123.3197 0.0261402
124.0044 0.0261397
124.688 0.0261393
125.3737 0.026139
126.0577 0.026139
127.1441 0.0261389
127.8278 0.0261386
128.5096 0.0261386
129.195 0.0261381
129.8779 0.0261377
130.5594 0.0261325
131.2454 0.0261282
131.9311 0.0261274
132.615 0.0261261
133.3019 0.0261254
133.9903 0.026125
134.6756 0.026125
135.3583 0.026125
136.0428 0.0261246
136.7268 0.0261238
137.4115 0.0261212
138.0954 0.026121
138.7806 0.0261206
139.4662 0.0261199
140.1507 0.0261194
140.8372 0.0261182
141.5229 0.0261136
142.2067 0.0261094
143.2956 0.0261079
143.9798 0.026103
144.6627 0.0261017
145.3441 0.0261008
146.0307 0.0260987
146.7145 0.0260882
147.4005 0.0260882
148.0851 0.0260882
148.7703 0.0260882
149.4552 0.0260882
150.1404 0.0260885
150.8235 0.0260904
151.5098 0.026092
152.2001 0.026093
152.882 0.0260933
153.5668 0.0260933
154.2531 0.0260933
154.9358 0.0260933
155.6209 0.0260938
156.3059 0.0260941
156.9871 0.0260941
157.6734 0.0260946
158.7626 0.0260946
159.4444 0.0260942
160.1289 0.0260941
160.8144 0.0260941
161.4987 0.0260941
162.1819 0.0260903
162.8656 0.0260858
163.5497 0.0260842
164.2336 0.0260828
164.9188 0.0260822
165.6063 0.0260815
166.2865 0.0260822
166.9706 0.026082
167.6545 0.0260814
168.3364 0.026081
169.0222 0.0260807
169.7068 0.0260804
170.3904 0.0260802
171.0751 0.0260798
171.7564 0.0260789
172.439 0.0260776
173.1236 0.0260763
173.8077 0.0260747
174.8958 0.0260737
175.5801 0.0260732
176.2629 0.0260727
176.9432 0.0260719
177.6311 0.0260701
178.3183 0.0260682
178.9986 0.0260677
179.6832 0.0260664
180.3681 0.0260656
181.0515 0.0260653
181.7361 0.0260651
182.4213 0.0260651
183.1086 0.0260653
183.7929 0.0260658
184.4819 0.0260658
185.1643 0.0260657
185.8513 0.026065
186.5356 0.026065
187.2211 0.026065
187.9053 0.0260649
188.5895 0.0260646
189.276 0.0260638
190.365 0.0260634
191.0492 0.0260618
191.7318 0.0260613
192.4126 0.0260597
193.0958 0.0260588
193.7796 0.0260539
194.4656 0.026049
195.15 0.0260484
195.8353 0.0260479
196.5203 0.0260479
197.2021 0.0260479
197.8865 0.0260479
198.5725 0.0260479
199.2592 0.0260479
199.9419 0.0260477
200.6223 0.0260469
201.3059 0.0260459
201.9906 0.0260452
202.6743 0.0260452
203.3602 0.0260452
204.0445 0.0260452
204.7286 0.0260448
205.4125 0.0260448
206.4983 0.0260438
207.1849 0.0260434
207.8709 0.0260434
208.5557 0.0260431
209.2397 0.0260411
209.9263 0.0260396
210.6122 0.0260386
211.2957 0.0260368
211.9795 0.0260364
212.665 0.0260364
213.3463 0.0260368
214.0321 0.0260386
214.719 0.0260392
215.4015 0.0260392
216.0857 0.0260397
216.7671 0.0260397
217.4516 0.0260397
218.1419 0.0260397
218.8266 0.0260391
219.5116 0.0260385
220.1975 0.026037
220.8798 0.0260369
221.9687 0.0260351
222.6525 0.0260332
223.335 0.0260323
224.0219 0.0260316
224.7024 0.0260301
225.386 0.0260234
226.0728 0.0260173
226.7547 0.0260173
227.4361 0.0260173
228.1213 0.0260161
228.8033 0.0260158
229.4863 0.0260159
230.1707 0.0260161
230.858 0.0260166
231.5432 0.0260181
232.2273 0.0260185
232.9365 0.026019
233.6221 0.0260222
234.3077 0.0260232
234.9956 0.0260232
235.6768 0.0260232
236.3633 0.0260233
237.0454 0.0260233
238.1316 0.0260232
238.8149 0.026023
239.4959 0.0260216
240.181 0.026021
240.8622 0.026019
241.5457 0.026014
242.2257 0.0260105
242.9064 0.0260079
243.5924 0.0260056
244.2775 0.0260051
244.9621 0.0260051
245.6461 0.0260053
246.3286 0.0260057
247.0115 0.0260053
247.6925 0.026005
248.3785 0.026005
249.0584 0.026005
249.7436 0.0260051
250.4268 0.0260049
251.1136 0.0260048
251.7972 0.0260051
252.4796 0.0260051
253.5632 0.0260051
254.2452 0.0260051
254.9274 0.026005
255.6102 0.0260048
256.292 0.0260038
256.9764 0.0260029
257.6576 0.0260012
258.3394 0.0260007
259.0206 0.0260007
259.7018 0.0260007
260.3814 0.026
261.0693 0.026
261.7537 0.026
262.4361 0.026
263.1186 0.0259988
263.8009 0.0259979
264.4837 0.0259976
265.1671 0.0259966
265.8533 0.0259966
266.5377 0.0259957
267.2218 0.0259955
267.9035 0.0259955
268.5858 0.0259956
269.6737 0.0259956
270.3589 0.0259956
271.0446 0.0259955
271.7303 0.0259955
272.4167 0.0259947
273.1021 0.0259904
273.7878 0.0259895
274.4742 0.025989
275.1581 0.0259886
275.8411 0.0259879
276.5232 0.0259873
277.2066 0.0259873
277.8877 0.0259871
278.5738 0.025987
279.256 0.0259868
279.9422 0.0259869
280.6239 0.0259867
281.3061 0.0259866
281.9905 0.0259864
282.6724 0.025986
283.3545 0.0259857
284.0348 0.0259853
285.1207 0.025985
285.8023 0.0259842
286.4872 0.025983
287.1687 0.0259827
287.8556 0.0259811
288.5421 0.0259803
289.2227 0.0259803
289.9098 0.0259803
290.5915 0.0259803
291.2743 0.0259794
291.9567 0.0259794
292.6414 0.0259817
293.3244 0.0259831
294.0095 0.0259832
294.6914 0.0259832
295.3764 0.0259832
296.06 0.0259832
296.7402 0.0259824
297.4219 0.0259805
298.1059 0.02598
298.7878 0.0259788
299.4693 0.0259784
300.1501 0.0259781
301.2352 0.0259773
301.9163 0.0259761
302.5976 0.0259742
303.2791 0.0259742
303.9599 0.0259744
304.6434 0.0259745
305.3245 0.0259748
306.0067 0.0259749
306.6905 0.0259749
307.3778 0.0259749
308.0605 0.0259749
308.7426 0.0259758
309.4245 0.0259764
310.1067 0.0259764
310.786 0.0259764
311.4679 0.0259765
312.1523 0.0259765
312.8751 0.0259764
313.5581 0.0259753
314.2432 0.0259748
314.9274 0.0259753
315.6104 0.0259753
316.699 0.0259753
317.3794 0.0259741
318.0641 0.025973
318.751 0.0259717
319.4336 0.0259699
320.1216 0.0259719
320.8045 0.025971
321.4896 0.0259699
322.1745 0.025969
322.8556 0.025969
323.5377 0.025969
324.2192 0.0259694
324.9032 0.0259699
325.5838 0.0259701
326.2665 0.0259708
326.9481 0.0259708
327.6316 0.0259712
328.3158 0.0259715
328.998 0.0259715
329.6827 0.0259715
330.3612 0.0259711
331.0461 0.025971
331.7297 0.0259707
332.8143 0.0259694
333.4952 0.0259689
334.1801 0.0259656
334.8661 0.0259644
335.5469 0.0259639
336.2282 0.0259581
336.9091 0.0259581
337.592 0.0259579
338.2782 0.0259576
338.9603 0.0259576
339.6467 0.0259576
340.3275 0.0259581
341.0075 0.0259587
341.6898 0.0259595
342.3722 0.0259598
343.0543 0.0259601
343.7382 0.0259604
344.42 0.0259604
345.1035 0.0259607
345.7887 0.0259611
346.472 0.0259615
347.1547 0.0259617
348.2379 0.0259614
348.9184 0.0259609
349.603 0.0259607
350.2848 0.02596
350.9683 0.0259592
351.6549 0.0259538
352.3377 0.0259516
353.0226 0.0259516
353.7057 0.0259516
354.3871 0.0259514
355.0682 0.0259509
355.7494 0.0259519
356.4341 0.0259523
357.1185 0.0259534
357.7991 0.0259534
358.4797 0.0259534
359.1618 0.0259535
359.8458 0.0259534
360.5305 0.0259534
361.2145 0.0259534
361.9001 0.0259534
362.5816 0.0259543
363.2639 0.025955
364.351 0.0259541
365.0371 0.0259541
365.7189 0.0259541
366.3996 0.0259533
367.0835 0.0259529
367.7674 0.0259526
368.449 0.0259517
369.1338 0.0259509
369.8178 0.0259509
370.5014 0.0259509
371.1869 0.0259514
371.8707 0.0259514
372.5523 0.0259514
373.2374 0.0259513
373.9211 0.0259513
374.6036 0.0259507
375.2865 0.0259507
375.9668 0.0259503
376.6482 0.025948
377.333 0.0259479
378.0171 0.0259479
378.6991 0.025948
379.7854 0.0259481
380.4687 0.0259479
381.1502 0.0259479
381.8333 0.0259476
382.5138 0.0259457
383.1977 0.0259433
383.8805 0.0259423
384.5642 0.0259423
385.2471 0.0259423
385.9294 0.025942
386.6098 0.0259419
387.2941 0.0259419
387.9765 0.0259419
388.6618 0.0259419
389.3428 0.0259409
390.0298 0.0259396
390.7112 0.0259388
391.3931 0.0259388
392.0767 0.0259388
392.7582 0.0259388
393.4404 0.0259396
394.1247 0.0259402
394.8087 0.0259412
395.8918 0.0259413
396.5751 0.0259413
397.2582 0.0259413
397.9394 0.0259413
398.6232 0.0259393
399.3044 0.0259367
399.9858 0.0259363
400.6664 0.0259363
401.348 0.0259365
402.0287 0.0259354
402.7143 0.0259353
403.396 0.0259354
404.0782 0.0259354
404.7607 0.0259353
405.4435 0.0259354
406.1247 0.0259348
406.8068 0.0259338
407.4878 0.0259335
408.1702 0.0259335
408.8508 0.0259331
409.5356 0.0259331
410.2182 0.0259329
411.303 0.0259325
411.9841 0.0259323
412.6666 0.0259309
413.3468 0.0259306
414.0314 0.0259302
414.7164 0.0259269
415.4023 0.0259204
416.0865 0.025919
416.7701 0.0259173
417.4522 0.0259144
418.1373 0.0259144
418.8195 0.0259149
419.5008 0.0259158
420.1818 0.0259158
420.8647 0.0259158
421.5463 0.0259172
422.2279 0.025918
422.9097 0.0259221
423.5903 0.0259226
424.2781 0.0259255
424.9604 0.0259266
425.6445 0.025927
426.3257 0.025927
427.4114 0.025927
428.0949 0.0259266
428.7761 0.0259253
429.459 0.0259238
430.1394 0.0259204
430.8225 0.0259185
431.504 0.0259177
432.186 0.0259177
432.8676 0.0259177
433.5523 0.0259177
434.2317 0.0259186
434.9147 0.0259199
435.5968 0.0259204
436.2782 0.0259204
436.9601 0.0259204
437.6436 0.0259207
438.3285 0.0259207
439.0075 0.0259201
439.6915 0.0259186
440.3741 0.0259177
441.0545 0.0259172
441.7354 0.0259171
442.822 0.0259167
443.5048 0.0259162
444.1888 0.0259162
444.8704 0.0259152
445.5521 0.0259148
446.235 0.0259142
446.917 0.0259142
447.5984 0.0259137
448.282 0.0259137
448.964 0.0259137
449.6484 0.0259137
450.3325 0.0259137
451.0149 0.025914
451.6956 0.0259141
452.3774 0.0259142
453.0578 0.0259151
453.74 0.0259157
454.4218 0.0259163
455.1044 0.0259165
455.7867 0.0259166
456.4693 0.0259166
457.153 0.0259169
457.8328 0.0259172
458.9178 0.0259172
459.6002 0.0259167
460.2818 0.0259165
460.9636 0.0259156
461.6463 0.0259146
462.3281 0.025914
463.0109 0.0259132
463.6931 0.0259128
464.3748 0.0259126
465.0585 0.0259119
465.74 0.0259119
466.4228 0.0259121
467.1052 0.0259118
467.7899 0.0259118
468.4741 0.0259109
469.156 0.0259107
469.8368 0.0259101
470.5215 0.0259091
471.2022 0.0259078
471.8849 0.025907
472.5673 0.0259069
473.2494 0.0259069
474.3351 0.0259073
475.019 0.0259071
475.7014 0.0259067
476.3846 0.0259059
477.0661 0.0259051
477.747 0.0259059
478.4305 0.0259064
479.1116 0.025906
479.796 0.0259054
480.4773 0.0259054
481.1587 0.0259051
481.8392 0.0259051
482.5204 0.0259051
483.2054 0.0259051
483.8904 0.0259049
484.5745 0.0259049
485.2546 0.025905
485.9339 0.0259048
486.6156 0.0259048
487.2991 0.0259043
487.9826 0.025904
488.6622 0.0259035
489.3484 0.0259029
490.4355 0.0259029
491.1175 0.0259028
491.8009 0.0259024
492.4814 0.0259018
493.1646 0.0259012
493.8488 0.0258955
494.5301 0.0258945
495.2125 0.0258944
495.894 0.0258943
496.5768 0.0258943
497.2592 0.0258944
497.9416 0.0258945
498.624 0.0258954
499.3061 0.0258958
499.9874 0.0258956
500.669 0.0258956
501.3505 0.0258959
502.0354 0.0258963
502.7192 0.025897
503.403 0.0258974
504.0831 0.0258964
504.7638 0.0258964
505.8501 0.025896
506.5321 0.0258958
507.2147 0.0258957
507.8955 0.0258957
508.5774 0.0258952
509.2594 0.0258943
509.9422 0.025892
510.6229 0.0258912
511.3076 0.0258912
511.993 0.0258912
512.6762 0.0258912
513.3564 0.0258917
514.0382 0.0258933
514.7196 0.0258941
515.4021 0.0258944
516.0868 0.0258948
516.7698 0.0258955
517.4526 0.0258955
518.1359 0.0258955
518.8177 0.0258955
519.4993 0.0258951
520.1811 0.0258939
520.8627 0.0258931
521.9483 0.0258926
522.6322 0.0258924
523.3129 0.0258918
523.9965 0.0258907
524.6817 0.0258899
525.3661 0.0258882
526.0505 0.0258881
526.7347 0.0258881
527.4175 0.0258873
528.1036 0.0258871
528.7889 0.0258873
529.4697 0.0258885
530.1523 0.0258893
530.8352 0.0258897
531.5181 0.0258901
532.1996 0.0258905
532.8795 0.0258905
533.5625 0.0258901
534.2466 0.0258901
534.9305 0.0258903
535.612 0.0258898
536.2978 0.0258896
537.3821 0.0258898
538.0636 0.0258887
538.7451 0.0258884
539.4316 0.0258882
540.1139 0.0258867
540.7945 0.0258839
541.4778 0.0258787
542.164 0.0258787
542.8476 0.0258784
543.5298 0.025878
544.2132 0.025878
544.8974 0.025879
545.5823 0.0258795
546.2662 0.0258797
546.9505 0.0258798
547.6326 0.025881
548.316 0.025883
548.9995 0.025884
549.6858 0.025885
550.3688 0.025885
551.0505 0.025885
551.7337 0.0258844
552.4141 0.0258841
553.4981 0.0258827
554.1794 0.0258812
554.8617 0.0258796
555.544 0.0258789
556.2265 0.0258783
556.948 0.0258776
557.6306 0.0258775
558.3119 0.0258774
558.9953 0.0258774
559.6755 0.0258774
560.3574 0.0258774
561.0394 0.0258778
561.7215 0.0258786
562.4038 0.025879
563.0887 0.0258793
563.7739 0.0258798
564.4588 0.0258812
565.1396 0.0258815
565.8194 0.0258835
566.5041 0.0258848
567.1854 0.0258855
567.8673 0.0258862
568.9541 0.0258867
569.636 0.0258867
570.3192 0.0258866
570.9996 0.0258848
571.6808 0.0258846
572.3634 0.0258835
573.0491 0.0258816
573.7316 0.0258816
574.4137 0.0258816
575.0938 0.0258816
575.7779 0.0258816
576.4621 0.0258833
577.144 0.0258835
577.8287 0.0258836
578.5121 0.0258841
579.1944 0.0258846
579.8781 0.0258847
580.5581 0.0258847
581.2425 0.0258844
581.9252 0.0258844
582.6078 0.0258844
583.2902 0.0258841
583.9744 0.0258837
585.0624 0.0258834
585.7429 0.0258826
586.4259 0.0258817
587.106 0.0258795
587.7907 0.0258787
588.471 0.0258713
589.1549 0.0258713
589.8371 0.0258713
590.5205 0.0258713
591.2054 0.0258713
591.8857 0.0258714
592.5669 0.025873
593.2506 0.0258731
593.9332 0.0258734
594.6149 0.0258738
595.2963 0.0258744
595.9785 0.0258748
596.6609 0.0258753
597.3459 0.0258751
598.0267 0.0258756
598.7091 0.025876
599.3904 0.0258766
600.4754 0.025878
601.1582 0.025878
601.8382 0.0258775
602.5197 0.0258764
603.2021 0.0258757
603.8843 0.0258752
604.5647 0.025874
605.2494 0.0258737
605.9302 0.0258731
606.611 0.0258731
607.2933 0.0258731
607.9781 0.0258738
608.6601 0.0258742
609.3422 0.025875
610.0236 0.0258753
610.7035 0.025876
611.3865 0.0258763
612.0658 0.0258765
612.7499 0.0258768
613.4343 0.0258778
614.1156 0.0258784
614.8009 0.0258786
615.4829 0.025879
616.5694 0.025879
617.2527 0.025879
617.9369 0.0258787
618.62 0.0258778
619.3058 0.0258764
619.9894 0.0258754
620.6711 0.0258743
621.3553 0.0258743
622.0376 0.0258738
622.7203 0.0258738
623.4033 0.025874
624.0862 0.0258746
624.7702 0.0258747
625.454 0.025875
626.137 0.0258752
626.8191 0.0258752
627.5024 0.0258753
628.1845 0.0258752
628.8666 0.0258754
629.5501 0.0258754
630.2329 0.0258754
630.9156 0.0258754
632.0021 0.0258752
632.6848 0.0258751
633.3661 0.0258747
634.0474 0.0258747
634.7324 0.0258736
635.4156 0.0258705
636.099 0.0258688
636.7829 0.0258688
637.4644 0.0258688
638.1487 0.0258688
638.8322 0.0258688
639.5141 0.0258705
640.197 0.025871
640.8795 0.0258713
641.5624 0.0258713
642.2425 0.0258713
642.9244 0.0258713
643.6065 0.025871
644.2911 0.0258701
644.9714 0.0258692
645.656 0.0258686
646.3374 0.0258685
647.0194 0.0258685
648.1028 0.0258685
648.7869 0.0258684
649.47 0.0258682
650.1553 0.0258664
650.8411 0.025865
651.5232 0.0258649
652.2048 0.0258648
652.8883 0.0258645
653.5724 0.0258645
654.2582 0.0258645
654.9425 0.0258644
655.6228 0.0258648
656.3054 0.0258648
656.9876 0.0258648
657.6709 0.0258646
658.3516 0.0258646
659.0344 0.0258646
659.7168 0.0258647
660.4024 0.0258647
661.083 0.0258646
661.7612 0.0258647
662.4438 0.025864
663.5317 0.0258644
664.2138 0.025864
664.8952 0.025864
665.5786 0.0258636
666.2614 0.0258629
666.9458 0.0258601
667.6306 0.0258576
668.3145 0.0258576
668.9974 0.0258576
669.6834 0.0258573
670.3686 0.0258573
671.0537 0.0258581
671.7377 0.0258583
672.4211 0.0258583
673.1059 0.0258586
673.7862 0.0258583
674.4712 0.0258581
675.1545 0.0258581
675.8364 0.0258579
676.5216 0.0258579
677.2015 0.0258577
677.884 0.0258575
678.5657 0.0258579
679.651 0.0258584
680.3328 0.0258579
681.0148 0.0258578
681.6984 0.0258576
682.3802 0.0258567
683.0633 0.0258564
683.7469 0.0258564
684.4322 0.0258568
685.1118 0.025857
685.7948 0.0258562
686.4756 0.0258562
687.1586 0.0258572
687.8418 0.0258575
688.5235 0.0258576
689.2091 0.0258578
689.8912 0.0258586
690.5737 0.0258586
691.2555 0.0258586
691.9367 0.0258588
692.6219 0.0258591
693.3044 0.0258592
693.9865 0.0258591
695.0722 0.0258591
695.7569 0.025859
696.4381 0.0258586
697.1203 0.0258583
697.8021 0.025857
698.4862 0.0258531
699.1696 0.025851
699.8529 0.0258504