File: adquisiciones/MEDIDAS FINALES 28-6/pl final/3 nf 5 uvvis.csv
700,0.265368
699,0.26591
698,0.266433
697,0.267129
696,0.267716
695,0.268234
694,0.268909
693,0.269558
692,0.270172
691,0.270783
690,0.271427
689,0.27211
688,0.272687
687,0.273363
686,0.274075
685,0.274727
684,0.2754
683,0.276095
682,0.276945
681,0.277595
680,0.278364
679,0.279035
678,0.279778
677,0.280458
676,0.281144
675,0.281772
674,0.28248
673,0.283189
672,0.283809
671,0.28448
670,0.285064
669,0.285725
668,0.286335
667,0.287069
666,0.287698
665,0.288426
664,0.289041
663,0.289766
662,0.290536
661,0.291162
660,0.291889
659,0.292617
658,0.29338
657,0.294145
656,0.294786
655,0.295586
654,0.296264
653,0.297119
652,0.297856
651,0.298512
650,0.299229
649,0.299986
648,0.300907
647,0.301716
646,0.302315
645,0.30321
644,0.303964
643,0.304827
642,0.305523
641,0.306406
640,0.30723
639,0.308048
638,0.308787
637,0.309604
636,0.310503
635,0.311243
634,0.31213
633,0.312961
632,0.313876
631,0.314674
630,0.315527
629,0.316391
628,0.317289
627,0.318125
626,0.319066
625,0.31987
624,0.320919
623,0.321761
622,0.322618
621,0.32363
620,0.324488
619,0.325416
618,0.326341
617,0.327326
616,0.328339
615,0.329277
614,0.330196
613,0.331137
612,0.332261
611,0.333139
610,0.33417
609,0.33508
608,0.336171
607,0.33721
606,0.338199
605,0.339276
604,0.340197
603,0.341209
602,0.342249
601,0.343295
600,0.344366
599,0.34541
598,0.346437
597,0.347513
596,0.348581
595,0.349767
594,0.350803
593,0.351937
592,0.353021
591,0.354149
590,0.355274
589,0.356456
588,0.357522
587,0.358707
586,0.359818
585,0.360973
584,0.362353
583,0.363485
582,0.364681
581,0.365838
580,0.366963
579,0.368227
578,0.369471
577,0.370851
576,0.371979
575,0.373211
574,0.374468
573,0.375662
572,0.376974
571,0.378225
570,0.379573
569,0.380743
568,0.382048
567,0.383338
566,0.384563
565,0.385957
564,0.387297
563,0.388625
562,0.389939
561,0.39133
560,0.392744
559,0.394067
558,0.395545
557,0.396871
556,0.398405
555,0.399736
554,0.401211
553,0.402673
552,0.404061
551,0.405482
550,0.406924
549,0.408441
548,0.409902
547,0.411386
546,0.412896
545,0.414434
544,0.415998
543,0.417526
542,0.419146
541,0.420713
540,0.422302
539,0.423894
538,0.425576
537,0.427123
536,0.428806
535,0.43047
534,0.432107
533,0.433817
532,0.435436
531,0.437187
530,0.438953
529,0.440646
528,0.442455
527,0.444131
526,0.446041
525,0.447815
524,0.449595
523,0.451362
522,0.453155
521,0.455027
520,0.45691
519,0.458851
518,0.460778
517,0.462714
516,0.464689
515,0.466516
514,0.4686
513,0.470494
512,0.472526
511,0.4746
510,0.476594
509,0.478687
508,0.480823
507,0.482776
506,0.484948
505,0.487032
504,0.489126
503,0.491294
502,0.493538
501,0.495744
500,0.498032
499,0.500269
498,0.502554
497,0.504728
496,0.507112
495,0.509402
494,0.51178
493,0.514151
492,0.516495
491,0.519055
490,0.521449
489,0.524054
488,0.526503
487,0.528927
486,0.531511
485,0.534014
484,0.536479
483,0.539226
482,0.541854
481,0.544538
480,0.547065
479,0.549847
478,0.552494
477,0.555031
476,0.557963
475,0.560698
474,0.563426
473,0.566245
472,0.569208
471,0.57207
470,0.574849
469,0.577853
468,0.580788
467,0.583718
466,0.586737
465,0.589687
464,0.592816
463,0.595925
462,0.59897
461,0.602138
460,0.605229
459,0.608524
458,0.611771
457,0.615158
456,0.618384
455,0.621679
454,0.625234
453,0.628629
452,0.632097
451,0.635481
450,0.639029
449,0.642641
448,0.646094
447,0.649613
446,0.653347
445,0.657119
444,0.660834
443,0.664493
442,0.668332
441,0.67219
440,0.676303
439,0.680037
438,0.684106
437,0.688172
436,0.69213
435,0.696177
434,0.700322
433,0.704401
432,0.708634
431,0.712787
430,0.717127
429,0.721508
428,0.725901
427,0.730273
426,0.735026
425,0.739585
424,0.744046
423,0.748676
422,0.753469
421,0.756663
420,0.761387
419,0.766206
418,0.77091
417,0.775864
416,0.780641
415,0.785744
414,0.790836
413,0.796158
412,0.801202
411,0.806331
410,0.811645
409,0.817089
408,0.822415
407,0.827814
406,0.833294
405,0.838782
404,0.844304
403,0.849823
402,0.855632
401,0.861274
400,0.867135
399,0.873218
398,0.879082
397,0.885237
396,0.891376
395,0.897497
394,0.903876
393,0.91013
392,0.916416
391,0.922683
390,0.929317
389,0.935915
388,0.942639
387,0.949055
386,0.955923
385,0.962975
384,0.973609
383,0.988924
382,0.998674
381,0.999306
380,1.011938
379,1.011575
378,1.020197
377,1.032851
376,1.039595
375,1.046973
374,1.054295
373,1.065165
372,1.07319
371,1.079889
370,1.090787
369,1.097626
368,1.108988
367,1.117678
366,1.124238
365,1.13757
364,1.143187
363,1.154297
362,1.164613
361,1.173206
360,1.184593
359,1.194057
358,1.203994
357,1.214903
356,1.225327
355,1.232313
354,1.245391
353,1.257366
352,1.265022
351,1.276931
350,1.293102
349,1.297193
348,1.308623
347,1.314667
346,1.329972
345,1.341139
344,1.354321
343,1.368647
342,1.378541
341,1.391385
340,1.403293
339,1.416932
338,1.438233
337,1.454167
336,1.466505
335,1.489226
334,1.506355
333,1.525399
332,1.541218
331,1.53279
330,1.571118
329,1.595848
328,1.625092
327,1.683884
326,1.75032
325,1.845266
324,2.000522
323,2.226829
322,2.460478
321,2.548911
320,2.553215
319,2.829447
318,3.298295
317,3.652545
316,3.599346
315,3.537328
314,3.634423
313,3.63441
312,3.736023
311,3.653049
310,3.736157
309,3.672438
308,3.736212
307,3.634884
306,3.653414
305,3.693069
304,3.635002
303,3.63501
302,3.635195
301,3.760012
300,3.73651
299,3.583954
298,3.67279
297,3.784793
296,3.617076
295,3.713818
294,3.672316
293,3.692284
292,3.616354
291,3.482584
290,3.671556
289,3.73501
288,3.691515
287,3.633342
286,3.691183
285,3.581996
284,3.615416
283,3.598319
282,3.536011
281,3.61523
280,3.690808
279,3.550616
278,3.670731
277,3.651354
276,3.615272
275,3.550945
274,3.598353
273,3.651737
272,3.651838
271,3.691519
270,3.691469
269,3.671375
268,3.671568
267,3.566883
266,3.652562
265,3.759151
264,3.692242
263,3.810451
262,3.759273
261,3.735885
260,3.759412
259,3.692469
258,3.735981
257,3.759462
256,3.868678
255,3.868737
254,3.810753
253,3.935671
252,3.810602
251,3.713671
250,3.784198
249,3.838526
248,3.838685
247,3.868712
246,3.935793
245,3.811005
244,3.936095
243,3.760142
242,3.901639
241,3.83962
240,3.901986
239,3.936911
238,3.870103
237,4.016511
236,3.937434
235,3.812763
234,3.870847
233,3.871135
232,3.903607
231,3.871761
230,3.872252
229,3.87281
228,3.87347
227,3.741682
226,3.790815
225,3.876177
224,3.944047
223,3.877766
222,3.910489
221,3.945624
220,3.910871
219,3.794443
218,3.945719
217,3.848891
216,3.983716
215,3.983782
214,3.946194
213,3.879596
212,3.984728
211,3.850103
210,3.850536
209,4.027199
208,4.124578
207,3.913806
206,3.986939
205,3.950162
204,3.916065
203,3.88435
202,3.801097
201,3.953776
200,3.954315