File: adquisiciones/uv vis cef3 14-6/mixclean bis.Sample.Raw.csv
nm, A
700, 0.700002
699, 0.701509
698, 0.703101
697, 0.704661
696, 0.706191
695, 0.707847
694, 0.709402
693, 0.710944
692, 0.712531
691, 0.714155
690, 0.715794
689, 0.717383
688, 0.719025
687, 0.720727
686, 0.722354
685, 0.724005
684, 0.725706
683, 0.727458
682, 0.729509
681, 0.731126
680, 0.732903
679, 0.734548
678, 0.736308
677, 0.737961
676, 0.739672
675, 0.741432
674, 0.743137
673, 0.744854
672, 0.746563
671, 0.748282
670, 0.749958
669, 0.751604
668, 0.753328
667, 0.754962
666, 0.756705
665, 0.758381
664, 0.760201
663, 0.761944
662, 0.763758
661, 0.765412
660, 0.767432
659, 0.769056
658, 0.770986
657, 0.772691
656, 0.774647
655, 0.776379
654, 0.778321
653, 0.780181
652, 0.781978
651, 0.783918
650, 0.785844
649, 0.787631
648, 0.789674
647, 0.791558
646, 0.793448
645, 0.795539
644, 0.797391
643, 0.799303
642, 0.801318
641, 0.803308
640, 0.805278
639, 0.807230
638, 0.809257
637, 0.811270
636, 0.813223
635, 0.815213
634, 0.817271
633, 0.819298
632, 0.821311
631, 0.823383
630, 0.825503
629, 0.827479
628, 0.829608
627, 0.831660
626, 0.833667
625, 0.835785
624, 0.837954
623, 0.840105
622, 0.842247
621, 0.844420
620, 0.846589
619, 0.848752
618, 0.851014
617, 0.853161
616, 0.855426
615, 0.857643
614, 0.859818
613, 0.862017
612, 0.864285
611, 0.866454
610, 0.868695
609, 0.871081
608, 0.873375
607, 0.875596
606, 0.877917
605, 0.880215
604, 0.882531
603, 0.884842
602, 0.887219
601, 0.889513
600, 0.891928
599, 0.894314
598, 0.896776
597, 0.898972
596, 0.901503
595, 0.903906
594, 0.906381
593, 0.908782
592, 0.911276
591, 0.913873
590, 0.916202
589, 0.918732
588, 0.921227
587, 0.923723
586, 0.926199
585, 0.928672
584, 0.931326
583, 0.933836
582, 0.936457
581, 0.938923
580, 0.941531
579, 0.944025
578, 0.946639
577, 0.949249
576, 0.951847
575, 0.954478
574, 0.957138
573, 0.959665
572, 0.962489
571, 0.965119
570, 0.967827
569, 0.970457
568, 0.973378
567, 0.975903
566, 0.978702
565, 0.981409
564, 0.984124
563, 0.986805
562, 0.989547
561, 0.992367
560, 0.995334
559, 0.998048
558, 1.001266
557, 1.004437
556, 1.007330
555, 1.010067
554, 1.013091
553, 1.015931
552, 1.018931
551, 1.021871
550, 1.024696
549, 1.027570
548, 1.030741
547, 1.033663
546, 1.036664
545, 1.039667
544, 1.042734
543, 1.045830
542, 1.048944
541, 1.051979
540, 1.055139
539, 1.058234
538, 1.061250
537, 1.064428
536, 1.067542
535, 1.070741
534, 1.073939
533, 1.077089
532, 1.080168
531, 1.083535
530, 1.086735
529, 1.090038
528, 1.093365
527, 1.096644
526, 1.099861
525, 1.103218
524, 1.106536
523, 1.109894
522, 1.113153
521, 1.116555
520, 1.119890
519, 1.123336
518, 1.126837
517, 1.130307
516, 1.133638
515, 1.137203
514, 1.140763
513, 1.144238
512, 1.147774
511, 1.151273
510, 1.154922
509, 1.158417
508, 1.161999
507, 1.165472
506, 1.169237
505, 1.172842
504, 1.176485
503, 1.180011
502, 1.183854
501, 1.187671
500, 1.191290
499, 1.195043
498, 1.198906
497, 1.202670
496, 1.206369
495, 1.210187
494, 1.214024
493, 1.217744
492, 1.221769
491, 1.225471
490, 1.229367
489, 1.233409
488, 1.237526
487, 1.241517
486, 1.245425
485, 1.249390
484, 1.253494
483, 1.257222
482, 1.261457
481, 1.265459
480, 1.269650
479, 1.273473
478, 1.277617
477, 1.281705
476, 1.285863
475, 1.289941
474, 1.294008
473, 1.298389
472, 1.302607
471, 1.306711
470, 1.310777
469, 1.315202
468, 1.319339
467, 1.323312
466, 1.327849
465, 1.331839
464, 1.336184
463, 1.340562
462, 1.344585
461, 1.349115
460, 1.353475
459, 1.357755
458, 1.362147
457, 1.366750
456, 1.371199
455, 1.375528
454, 1.379640
453, 1.384612
452, 1.388656
451, 1.392993
450, 1.397697
449, 1.402646
448, 1.407023
447, 1.411589
446, 1.416024
445, 1.420678
444, 1.425353
443, 1.430090
442, 1.434893
441, 1.439441
440, 1.444270
439, 1.448803
438, 1.453514
437, 1.458461
436, 1.463391
435, 1.467776
434, 1.472632
433, 1.477798
432, 1.482689
431, 1.487441
430, 1.492755
429, 1.497061
428, 1.502487
427, 1.507043
426, 1.512584
425, 1.517612
424, 1.523117
423, 1.528121
422, 1.533218
421, 1.536387
420, 1.541761
419, 1.546918
418, 1.552028
417, 1.557450
416, 1.562847
415, 1.568076
414, 1.572933
413, 1.578689
412, 1.584171
411, 1.589254
410, 1.594826
409, 1.600491
408, 1.606082
407, 1.611457
406, 1.616988
405, 1.622589
404, 1.627967
403, 1.633594
402, 1.639639
401, 1.645223
400, 1.650839
399, 1.656979
398, 1.662950
397, 1.668877
396, 1.674644
395, 1.680786
394, 1.687208
393, 1.693744
392, 1.700292
391, 1.705956
390, 1.712541
389, 1.719237
388, 1.726382
387, 1.732252
386, 1.739307
385, 1.747662
384, 1.750689
383, 1.766860
382, 1.751325
381, 1.777974
380, 1.767776
379, 1.772904
378, 1.790539
377, 1.800197
376, 1.798257
375, 1.824872
374, 1.836491
373, 1.831618
372, 1.851404
371, 1.841128
370, 1.872004
369, 1.866110
368, 1.881445
367, 1.892207
366, 1.893831
365, 1.890086
364, 1.918102
363, 1.902468
362, 1.935268
361, 1.944295
360, 1.950402
359, 1.966754
358, 1.968993
357, 1.977532
356, 1.983472
355, 1.962023
354, 2.005683
353, 1.997165
352, 2.029748
351, 2.001522
350, 2.033730
349, 2.045134
348, 2.041179
347, 2.037725
346, 2.051419
345, 2.060106
344, 2.060319
343, 2.110484
342, 2.085758
341, 2.097855
340, 2.104293
339, 2.093548
338, 2.157260
337, 2.168264
336, 2.182042
335, 2.196483
334, 2.214535
333, 2.197482
332, 2.243343
331, 2.161711
330, 2.222619
329, 2.264564
328, 2.236581
327, 2.337053
326, 2.345044
325, 2.354390
324, 2.375893
323, 2.379703
322, 2.410084
321, 2.421041
320, 2.435722
319, 2.456673
318, 2.471485
317, 2.493097
316, 2.516109
315, 2.527298
314, 2.558142
313, 2.604634
312, 2.627378
311, 2.616862
310, 2.636433
309, 2.647563
308, 2.705390
307, 2.701157
306, 2.722823
305, 2.755104
304, 2.787372
303, 2.839336
302, 2.866107
301, 2.901358
300, 2.950923
299, 2.989953
298, 3.075711
297, 3.128575
296, 3.215780
295, 3.371425
294, 3.446499
293, 3.509282
292, 3.616442
291, 3.445966
290, 3.616106
289, 3.566682
288, 3.691427
287, 3.633384
286, 3.651779
285, 3.691174
284, 3.758045
283, 3.508020
282, 3.550663
281, 3.651333
280, 3.711976
279, 3.690736
278, 3.782612
277, 3.757936
276, 3.734311
275, 3.670773
274, 3.899378
273, 4.013385
272, 4.110430
271, 3.867455
270, 3.972253
269, 3.934536
268, 3.934679
267, 3.691894
266, 4.059950
265, 3.900455
264, 4.060219
263, 3.973027
262, 3.935205
261, 3.868472
260, 4.014693
259, 3.900594
258, 4.014663
257, 4.060480
256, 4.060547
255, 4.060513
254, 4.111674
253, 4.014785
252, 4.169742
251, 3.935511
250, 4.060354
249, 4.014663
248, 4.315731
247, 4.169758
246, 4.169867
245, 4.236898
244, 4.170153
243, 3.973908
242, 4.170341
241, 4.237405
240, 4.170681
239, 4.317064
238, 4.414079
237, 4.238155
236, 4.238305
235, 4.016532
234, 4.317804
233, 4.238761
232, 4.239016
231, 4.063204
230, 4.172774
229, 4.319356
228, 4.115881
227, 3.978205
226, 4.321507
225, 4.118372
224, 4.177343
223, 4.120339
222, 4.246039
221, 4.179490
220, 4.325914
219, 3.945801
218, 4.070649
217, 4.179831
216, 4.121892
215, 4.326151
214, 4.180146
213, 4.122601
212, 4.326835
211, 4.122973
210, 4.072099
209, 4.124003
208, 4.124313
207, 4.249366
206, 4.073755
205, 4.330089
204, 4.184614
203, 3.916260
202, 3.989903
201, 4.032723
200, 4.255156