File: adquisiciones/uv vis cef3 14-6/mixfeo bis.Sample.Raw.csv
nm, A
700, 0.702561
699, 0.704078
698, 0.705582
697, 0.707091
696, 0.708611
695, 0.710095
694, 0.711659
693, 0.713149
692, 0.714805
691, 0.716357
690, 0.717922
689, 0.719458
688, 0.720985
687, 0.722715
686, 0.724288
685, 0.725884
684, 0.727509
683, 0.729121
682, 0.730608
681, 0.732398
680, 0.734032
679, 0.735746
678, 0.737318
677, 0.739039
676, 0.740842
675, 0.742389
674, 0.743945
673, 0.745665
672, 0.747377
671, 0.748945
670, 0.750624
669, 0.752295
668, 0.753842
667, 0.755456
666, 0.757269
665, 0.758856
664, 0.760542
663, 0.762195
662, 0.764034
661, 0.765619
660, 0.767524
659, 0.769172
658, 0.771033
657, 0.772737
656, 0.774506
655, 0.776332
654, 0.778060
653, 0.779943
652, 0.781786
651, 0.783702
650, 0.785554
649, 0.787243
648, 0.789260
647, 0.791093
646, 0.793005
645, 0.794921
644, 0.796795
643, 0.798630
642, 0.800642
641, 0.802477
640, 0.804495
639, 0.806366
638, 0.808313
637, 0.810321
636, 0.812218
635, 0.814100
634, 0.816153
633, 0.818097
632, 0.820130
631, 0.822197
630, 0.824258
629, 0.826308
628, 0.828271
627, 0.830209
626, 0.832344
625, 0.834238
624, 0.836536
623, 0.838625
622, 0.840705
621, 0.842981
620, 0.845003
619, 0.847130
618, 0.849413
617, 0.851494
616, 0.853695
615, 0.855874
614, 0.858069
613, 0.860287
612, 0.862517
611, 0.864619
610, 0.866939
609, 0.869285
608, 0.871452
607, 0.873811
606, 0.876003
605, 0.878291
604, 0.880627
603, 0.882928
602, 0.885203
601, 0.887516
600, 0.889920
599, 0.892232
598, 0.894651
597, 0.896899
596, 0.899196
595, 0.901554
594, 0.903823
593, 0.906304
592, 0.908621
591, 0.910841
590, 0.913250
589, 0.915397
588, 0.917770
587, 0.920074
586, 0.922357
585, 0.924769
584, 0.927223
583, 0.929943
582, 0.932397
581, 0.934939
580, 0.937483
579, 0.940055
578, 0.942568
577, 0.945257
576, 0.947972
575, 0.950686
574, 0.953393
573, 0.956006
572, 0.958842
571, 0.961485
570, 0.964282
569, 0.966890
568, 0.969558
567, 0.972328
566, 0.975141
565, 0.977864
564, 0.980480
563, 0.983215
562, 0.986093
561, 0.988891
560, 0.991754
559, 0.994283
558, 0.998291
557, 1.001444
556, 1.004400
555, 1.007035
554, 1.010081
553, 1.013028
552, 1.015797
551, 1.018845
550, 1.021694
549, 1.024634
548, 1.027698
547, 1.030601
546, 1.033758
545, 1.036697
544, 1.039833
543, 1.042864
542, 1.045957
541, 1.049244
540, 1.052155
539, 1.055322
538, 1.058363
537, 1.061614
536, 1.064755
535, 1.067981
534, 1.071207
533, 1.074384
532, 1.077687
531, 1.081035
530, 1.084315
529, 1.087599
528, 1.091007
527, 1.094320
526, 1.097722
525, 1.101063
524, 1.104467
523, 1.107758
522, 1.111210
521, 1.114597
520, 1.118129
519, 1.121561
518, 1.125156
517, 1.128722
516, 1.132206
515, 1.135537
514, 1.139363
513, 1.142939
512, 1.146522
511, 1.150183
510, 1.153880
509, 1.157600
508, 1.161293
507, 1.164879
506, 1.168639
505, 1.172419
504, 1.176241
503, 1.179949
502, 1.183916
501, 1.187733
500, 1.191605
499, 1.195297
498, 1.199355
497, 1.203317
496, 1.207349
495, 1.211175
494, 1.215220
493, 1.219220
492, 1.223123
491, 1.227042
490, 1.231229
489, 1.235359
488, 1.239846
487, 1.243859
486, 1.248147
485, 1.252283
484, 1.256635
483, 1.260539
482, 1.265031
481, 1.269294
480, 1.273599
479, 1.277921
478, 1.282421
477, 1.286478
476, 1.290923
475, 1.295452
474, 1.299818
473, 1.304508
472, 1.308791
471, 1.313125
470, 1.317934
469, 1.322264
468, 1.327081
467, 1.331393
466, 1.336021
465, 1.341168
464, 1.345431
463, 1.350275
462, 1.355043
461, 1.359690
460, 1.364734
459, 1.369324
458, 1.374425
457, 1.379657
456, 1.384844
455, 1.389417
454, 1.394690
453, 1.399531
452, 1.404876
451, 1.409806
450, 1.415563
449, 1.420935
448, 1.425965
447, 1.431195
446, 1.436750
445, 1.442336
444, 1.447966
443, 1.453212
442, 1.459259
441, 1.464573
440, 1.470447
439, 1.476287
438, 1.482213
437, 1.488296
436, 1.494375
435, 1.500168
434, 1.506621
433, 1.512916
432, 1.519061
431, 1.525638
430, 1.531893
429, 1.538480
428, 1.545785
427, 1.552458
426, 1.559538
425, 1.566532
424, 1.573486
423, 1.581342
422, 1.588405
421, 1.594297
420, 1.601964
419, 1.609417
418, 1.617215
417, 1.625304
416, 1.633042
415, 1.641387
414, 1.649556
413, 1.658315
412, 1.666833
411, 1.675539
410, 1.684358
409, 1.693793
408, 1.703245
407, 1.712357
406, 1.721975
405, 1.732034
404, 1.741698
403, 1.751345
402, 1.762639
401, 1.773247
400, 1.784587
399, 1.796373
398, 1.808348
397, 1.820811
396, 1.832092
395, 1.844443
394, 1.858348
393, 1.871489
392, 1.885594
391, 1.900254
390, 1.914382
389, 1.929352
388, 1.944980
387, 1.959016
386, 1.974899
385, 1.991812
384, 2.018599
383, 1.947666
382, 2.038843
381, 2.043366
380, 2.068806
379, 2.044495
378, 2.078709
377, 2.099134
376, 2.106666
375, 2.138328
374, 2.155011
373, 2.149365
372, 2.204625
371, 2.185639
370, 2.227620
369, 2.263897
368, 2.265616
367, 2.289822
366, 2.319800
365, 2.296707
364, 2.341313
363, 2.301912
362, 2.318005
361, 2.403438
360, 2.382623
359, 2.475554
358, 2.459539
357, 2.445237
356, 2.519966
355, 2.395460
354, 2.483652
353, 2.507079
352, 2.506869
351, 2.536036
350, 2.565299
349, 2.548614
348, 2.554332
347, 2.503988
346, 2.490988
345, 2.527210
344, 2.695532
343, 2.596934
342, 2.622707
341, 2.701501
340, 2.602845
339, 2.503424
338, 2.749115
337, 2.813463
336, 2.802474
335, 2.642845
334, 2.865675
333, 2.630851
332, 2.760820
331, 2.604590
330, 2.741981
329, 2.778202
328, 2.667945
327, 3.026975
326, 3.122266
325, 3.116679
324, 3.151059
323, 3.122086
322, 3.169212
321, 3.188252
320, 3.281967
319, 3.243328
318, 3.306740
317, 3.273872
316, 3.351662
315, 3.229107
314, 3.391259
313, 3.401783
312, 3.434985
311, 3.423737
310, 3.423767
309, 3.470851
308, 3.470952
307, 3.361812
306, 3.471011
305, 3.653447
304, 3.510109
303, 3.653699
302, 3.714296
301, 3.583937
300, 3.784932
299, 3.552861
298, 3.759957
297, 3.935885
296, 3.839029
295, 3.900934
294, 3.868573
293, 3.868304
292, 3.900439
291, 3.735414
290, 3.867918
289, 3.837748
288, 3.972253
287, 3.972203
286, 3.899564
285, 3.899450
284, 3.782869
283, 3.734417
282, 3.782612
281, 3.866933
280, 4.058763
279, 4.167857
278, 3.808941
277, 4.058966
276, 4.058822
275, 3.651468
274, 3.934141
273, 3.899442
272, 4.110430
271, 4.013583
270, 3.972253
269, 4.110628
268, 3.934679
267, 3.783664
266, 3.935012
265, 3.935217
264, 4.014462
263, 4.060177
262, 4.060144
261, 4.169502
260, 4.412633
259, 3.868409
258, 4.014663
257, 4.236571
256, 4.111699
255, 4.111666
254, 4.169666
253, 4.315815
252, 4.315870
251, 3.900749
250, 4.412536
249, 4.111573
248, 4.412641
247, 4.169758
246, 4.315996
245, 4.316079
244, 4.413191
243, 4.112211
242, 4.112349
241, 4.316587
240, 4.413719
239, 4.413974
238, 4.317169
237, 4.238155
236, 4.414397
235, 4.113442
234, 4.238623
233, 4.238761
232, 4.239016
231, 4.114357
230, 4.415812
229, 4.115236
228, 4.173873
227, 4.019598
226, 4.175379
225, 4.322492
224, 4.119351
223, 4.421369
222, 4.325220
221, 4.121498
220, 4.246732
219, 4.070740
218, 4.325922
217, 4.179831
216, 4.179884
215, 4.122031
214, 4.247093
213, 4.423631
212, 4.326835
211, 4.026063
210, 4.123251
209, 4.072850
208, 4.425343
207, 4.124427
206, 4.329028
205, 4.125969
204, 4.184614
203, 3.884075
202, 4.128205
201, 4.333753
200, 4.079065