File: adquisiciones/uvvis 22-5/100_ or 0 Absorbance Baseline.Correction.Raw.csv
nm, A
700, -0.044787
699, -0.044712
698, -0.044552
697, -0.044422
696, -0.044293
695, -0.044206
694, -0.044093
693, -0.043967
692, -0.043794
691, -0.043739
690, -0.043598
689, -0.043492
688, -0.043335
687, -0.043217
686, -0.043130
685, -0.042985
684, -0.042875
683, -0.042883
682, -0.042985
681, -0.042835
680, -0.042721
679, -0.042650
678, -0.042576
677, -0.042426
676, -0.042390
675, -0.042229
674, -0.042107
673, -0.041988
672, -0.041886
671, -0.041819
670, -0.041772
669, -0.041716
668, -0.041566
667, -0.041476
666, -0.041444
665, -0.041385
664, -0.041243
663, -0.041199
662, -0.041132
661, -0.041085
660, -0.041037
659, -0.041029
658, -0.040867
657, -0.040836
656, -0.040745
655, -0.040677
654, -0.040697
653, -0.040555
652, -0.040476
651, -0.040452
650, -0.040401
649, -0.040306
648, -0.040254
647, -0.040183
646, -0.040116
645, -0.040036
644, -0.040032
643, -0.039953
642, -0.039949
641, -0.039838
640, -0.039803
639, -0.039755
638, -0.039763
637, -0.039632
636, -0.039616
635, -0.039557
634, -0.039600
633, -0.039537
632, -0.039549
631, -0.039537
630, -0.039501
629, -0.039438
628, -0.039438
627, -0.039394
626, -0.039370
625, -0.039398
624, -0.039327
623, -0.039351
622, -0.039244
621, -0.039295
620, -0.039228
619, -0.039228
618, -0.039192
617, -0.039124
616, -0.039109
615, -0.039136
614, -0.039069
613, -0.039057
612, -0.039061
611, -0.039041
610, -0.039005
609, -0.038962
608, -0.038954
607, -0.038974
606, -0.038954
605, -0.038906
604, -0.038934
603, -0.038906
602, -0.038874
601, -0.038771
600, -0.038779
599, -0.038712
598, -0.038592
597, -0.038465
596, -0.038326
595, -0.038099
594, -0.037857
593, -0.037582
592, -0.037215
591, -0.036904
590, -0.036425
589, -0.035958
588, -0.035474
587, -0.034857
586, -0.034300
585, -0.033657
584, -0.033005
583, -0.032417
582, -0.031820
581, -0.031219
580, -0.030624
579, -0.030130
578, -0.029550
577, -0.029152
576, -0.028689
575, -0.028388
574, -0.028103
573, -0.027879
572, -0.027680
571, -0.027443
570, -0.027309
569, -0.027207
568, -0.027113
567, -0.027007
566, -0.026921
565, -0.026868
564, -0.026852
563, -0.026807
562, -0.026742
561, -0.026860
560, -0.026746
559, -0.026635
558, -0.027341
557, -0.027818
556, -0.027916
555, -0.028026
554, -0.028116
553, -0.028238
552, -0.028319
551, -0.028421
550, -0.028571
549, -0.028669
548, -0.028852
547, -0.028994
546, -0.029124
545, -0.029299
544, -0.029355
543, -0.029445
542, -0.029489
541, -0.029514
540, -0.029514
539, -0.029566
538, -0.029554
537, -0.029534
536, -0.029534
535, -0.029583
534, -0.029599
533, -0.029558
532, -0.029583
531, -0.029595
530, -0.029587
529, -0.029566
528, -0.029603
527, -0.029591
526, -0.029570
525, -0.029558
524, -0.029607
523, -0.029627
522, -0.029558
521, -0.029558
520, -0.029591
519, -0.029562
518, -0.029570
517, -0.029579
516, -0.029562
515, -0.029566
514, -0.029570
513, -0.029534
512, -0.029562
511, -0.029562
510, -0.029550
509, -0.029562
508, -0.029526
507, -0.029554
506, -0.029493
505, -0.029550
504, -0.029514
503, -0.029579
502, -0.029526
501, -0.029538
500, -0.029497
499, -0.029546
498, -0.029562
497, -0.029522
496, -0.029583
495, -0.029530
494, -0.029501
493, -0.029497
492, -0.029518
491, -0.029453
490, -0.029457
489, -0.029412
488, -0.029457
487, -0.029323
486, -0.029323
485, -0.029189
484, -0.029132
483, -0.029128
482, -0.028966
481, -0.028876
480, -0.028766
479, -0.028677
478, -0.028466
477, -0.028242
476, -0.028038
475, -0.027989
474, -0.027716
473, -0.027411
472, -0.027191
471, -0.026929
470, -0.026725
469, -0.026554
468, -0.026321
467, -0.026080
466, -0.025826
465, -0.025498
464, -0.025257
463, -0.025076
462, -0.024834
461, -0.024621
460, -0.024441
459, -0.024219
458, -0.024075
457, -0.023935
456, -0.023758
455, -0.023582
454, -0.023483
453, -0.023343
452, -0.023047
451, -0.022944
450, -0.022750
449, -0.022639
448, -0.022280
447, -0.022020
446, -0.021640
445, -0.021371
444, -0.020982
443, -0.020602
442, -0.020204
441, -0.019880
440, -0.019503
439, -0.019125
438, -0.018659
437, -0.018372
436, -0.018014
435, -0.017701
434, -0.017488
433, -0.017154
432, -0.017104
431, -0.016908
430, -0.016662
429, -0.016682
428, -0.016532
427, -0.016452
426, -0.016390
425, -0.016360
424, -0.016294
423, -0.016235
422, -0.016206
421, -0.016231
420, -0.016181
419, -0.016176
418, -0.016214
417, -0.016176
416, -0.016227
415, -0.016218
414, -0.016260
413, -0.016348
412, -0.016331
411, -0.016444
410, -0.016377
409, -0.016490
408, -0.016465
407, -0.016507
406, -0.016490
405, -0.016532
404, -0.016674
403, -0.016712
402, -0.016716
401, -0.016808
400, -0.016795
399, -0.016774
398, -0.016850
397, -0.016795
396, -0.016795
395, -0.016837
394, -0.016787
393, -0.016795
392, -0.016674
391, -0.016628
390, -0.016607
389, -0.016582
388, -0.016519
387, -0.016511
386, -0.016452
385, -0.016457
384, -0.017534
383, -0.020680
382, -0.019615
381, -0.019170
380, -0.019303
379, -0.018243
378, -0.018118
377, -0.017789
376, -0.017547
375, -0.016783
374, -0.016758
373, -0.016657
372, -0.016632
371, -0.016365
370, -0.016348
369, -0.016310
368, -0.016227
367, -0.015925
366, -0.016390
365, -0.016051
364, -0.016306
363, -0.016243
362, -0.016268
361, -0.016122
360, -0.016114
359, -0.016218
358, -0.015879
357, -0.015791
356, -0.015992
355, -0.015435
354, -0.015372
353, -0.015133
352, -0.015079
351, -0.014840
350, -0.014634
349, -0.014327
348, -0.014075
347, -0.013591
346, -0.013212
345, -0.012947
344, -0.012782
343, -0.012018
342, -0.012436
341, -0.012073
340, -0.011008
339, -0.010414
338, -0.011092
337, -0.010677
336, -0.010902
335, -0.010830
334, -0.010423
333, -0.010241
332, -0.009553
331, -0.010105
330, -0.009387
329, -0.009544
328, -0.009370
327, -0.013297
326, -0.014197
325, -0.013953
324, -0.014088
323, -0.013949
322, -0.013932
321, -0.013978
320, -0.013999
319, -0.013966
318, -0.014155
317, -0.014130
316, -0.013987
315, -0.014172
314, -0.014285
313, -0.014449
312, -0.014479
311, -0.014542
310, -0.014621
309, -0.014701
308, -0.014751
307, -0.014877
306, -0.014987
305, -0.015091
304, -0.015087
303, -0.015133
302, -0.015150
301, -0.015272
300, -0.015138
299, -0.015117
298, -0.015117
297, -0.014991
296, -0.014873
295, -0.014751
294, -0.014630
293, -0.014449
292, -0.014117
291, -0.014079
290, -0.013865
289, -0.013596
288, -0.013591
287, -0.013490
286, -0.013166
285, -0.013153
284, -0.013179
283, -0.013006
282, -0.012959
281, -0.013044
280, -0.012955
279, -0.012820
278, -0.012922
277, -0.013086
276, -0.013073
275, -0.013136
274, -0.013094
273, -0.013271
272, -0.013440
271, -0.013465
270, -0.013671
269, -0.013718
268, -0.013856
267, -0.013945
266, -0.014180
265, -0.014235
264, -0.014260
263, -0.014348
262, -0.014395
261, -0.014395
260, -0.014546
259, -0.014542
258, -0.014642
257, -0.014575
256, -0.014621
255, -0.014739
254, -0.014798
253, -0.014710
252, -0.014777
251, -0.014634
250, -0.014550
249, -0.014563
248, -0.014689
247, -0.014739
246, -0.014919
245, -0.015100
244, -0.015196
243, -0.015364
242, -0.015465
241, -0.015666
240, -0.015754
239, -0.015971
238, -0.016118
237, -0.016235
236, -0.016398
235, -0.016528
234, -0.016753
233, -0.016996
232, -0.017159
231, -0.017488
230, -0.017893
229, -0.018397
228, -0.018946
227, -0.019739
226, -0.020510
225, -0.021479
224, -0.022453
223, -0.023425
222, -0.024227
221, -0.024707
220, -0.024912
219, -0.025007
218, -0.024912
217, -0.025085
216, -0.025027
215, -0.025162
214, -0.025351
213, -0.025765
212, -0.026010
211, -0.026145
210, -0.026464
209, -0.027195
208, -0.027545
207, -0.027712
206, -0.028063
205, -0.029221
204, -0.029773
203, -0.030373
202, -0.031320
201, -0.032949
200, -0.033428