File: adquisiciones/uvvis 22-5/Ps CeF3 10.Sample.Cycle1.Raw.csv
nm, A
700, 0.812655
699, 0.814110
698, 0.815382
697, 0.816767
696, 0.818105
695, 0.819518
694, 0.820986
693, 0.822318
692, 0.823712
691, 0.825151
690, 0.826535
689, 0.828119
688, 0.829445
687, 0.830923
686, 0.832384
685, 0.833845
684, 0.835267
683, 0.836948
682, 0.838648
681, 0.840075
680, 0.841679
679, 0.843142
678, 0.844689
677, 0.846167
676, 0.847682
675, 0.849104
674, 0.850684
673, 0.852077
672, 0.853436
671, 0.854891
670, 0.856428
669, 0.857877
668, 0.859209
667, 0.860576
666, 0.862237
665, 0.863646
664, 0.865122
663, 0.866703
662, 0.868179
661, 0.869768
660, 0.871216
659, 0.872827
658, 0.874230
657, 0.875888
656, 0.877434
655, 0.879040
654, 0.880649
653, 0.882223
652, 0.883715
651, 0.885359
650, 0.887013
649, 0.888660
648, 0.890327
647, 0.891981
646, 0.893646
645, 0.895275
644, 0.896955
643, 0.898597
642, 0.900290
641, 0.901852
640, 0.903494
639, 0.905259
638, 0.907023
637, 0.908623
636, 0.910345
635, 0.911934
634, 0.913762
633, 0.915490
632, 0.917268
631, 0.918996
630, 0.920774
629, 0.922531
628, 0.924360
627, 0.926053
626, 0.927839
625, 0.929752
624, 0.931439
623, 0.933398
622, 0.935030
621, 0.936999
620, 0.938823
619, 0.940688
618, 0.942490
617, 0.944374
616, 0.946178
615, 0.948209
614, 0.950012
613, 0.951915
612, 0.953842
611, 0.955682
610, 0.957694
609, 0.959527
608, 0.961477
607, 0.963390
606, 0.965272
605, 0.967245
604, 0.969229
603, 0.971315
602, 0.973257
601, 0.975175
600, 0.977176
599, 0.979148
598, 0.981231
597, 0.983125
596, 0.985286
595, 0.987140
594, 0.989143
593, 0.991243
592, 0.993264
591, 0.995512
590, 0.997408
589, 0.999449
588, 1.001568
587, 1.003570
586, 1.005769
585, 1.007737
584, 1.009753
583, 1.011849
582, 1.013911
581, 1.015943
580, 1.018082
579, 1.020127
578, 1.022187
577, 1.024401
576, 1.026523
575, 1.028779
574, 1.030935
573, 1.033166
572, 1.035391
571, 1.037371
570, 1.039553
569, 1.041870
568, 1.044073
567, 1.046231
566, 1.048512
565, 1.050748
564, 1.052893
563, 1.055114
562, 1.057326
561, 1.059921
560, 1.061921
559, 1.064219
558, 1.067061
557, 1.069302
556, 1.071652
555, 1.073977
554, 1.076293
553, 1.078701
552, 1.080983
551, 1.083346
550, 1.085671
549, 1.088003
548, 1.090532
547, 1.092681
546, 1.095131
545, 1.097841
544, 1.100090
543, 1.102639
542, 1.105210
541, 1.107723
540, 1.110226
539, 1.112744
538, 1.115105
537, 1.117791
536, 1.120245
535, 1.122763
534, 1.125479
533, 1.127937
532, 1.130693
531, 1.133124
530, 1.135825
529, 1.138643
528, 1.141311
527, 1.143890
526, 1.146591
525, 1.149431
524, 1.151890
523, 1.154508
522, 1.157285
521, 1.160033
520, 1.163008
519, 1.165883
518, 1.168574
517, 1.171463
516, 1.174286
515, 1.177025
514, 1.180028
513, 1.182826
512, 1.185707
511, 1.188453
510, 1.191394
509, 1.194316
508, 1.197209
507, 1.200186
506, 1.203030
505, 1.206141
504, 1.208984
503, 1.212079
502, 1.215012
501, 1.218164
500, 1.221084
499, 1.224045
498, 1.227336
497, 1.230457
496, 1.233703
495, 1.236718
494, 1.239709
493, 1.242959
492, 1.245971
491, 1.249135
490, 1.252320
489, 1.255772
488, 1.259047
487, 1.262316
486, 1.265521
485, 1.268917
484, 1.272268
483, 1.275392
482, 1.278766
481, 1.282164
480, 1.285649
479, 1.289026
478, 1.292149
477, 1.295607
476, 1.299117
475, 1.302323
474, 1.305906
473, 1.309408
472, 1.312861
471, 1.316220
470, 1.319837
469, 1.323348
468, 1.326743
467, 1.330248
466, 1.333508
465, 1.337613
464, 1.340860
463, 1.344560
462, 1.348232
461, 1.351692
460, 1.355403
459, 1.359013
458, 1.362641
457, 1.366879
456, 1.370546
455, 1.373955
454, 1.377668
453, 1.381869
452, 1.385457
451, 1.389273
450, 1.393442
449, 1.397326
448, 1.401000
447, 1.405334
446, 1.409174
445, 1.413273
444, 1.417189
443, 1.421155
442, 1.425259
441, 1.429484
440, 1.433704
439, 1.437858
438, 1.441742
437, 1.445965
436, 1.450047
435, 1.454339
434, 1.458660
433, 1.462908
432, 1.467488
431, 1.471848
430, 1.476082
429, 1.480882
428, 1.484925
427, 1.489209
426, 1.494076
425, 1.498901
424, 1.503209
423, 1.507840
422, 1.512279
421, 1.515720
420, 1.520636
419, 1.525095
418, 1.529784
417, 1.534590
416, 1.539250
415, 1.544194
414, 1.548800
413, 1.553800
412, 1.558601
411, 1.563432
410, 1.568599
409, 1.573697
408, 1.578556
407, 1.583858
406, 1.589166
405, 1.594270
404, 1.599202
403, 1.604083
402, 1.609665
401, 1.614891
400, 1.619899
399, 1.625663
398, 1.630707
397, 1.636222
396, 1.641681
395, 1.647065
394, 1.653175
393, 1.659432
392, 1.664685
391, 1.670471
390, 1.676560
389, 1.682531
388, 1.688752
387, 1.694499
386, 1.701322
385, 1.707679
384, 1.715853
383, 1.723577
382, 1.719672
381, 1.739047
380, 1.731054
379, 1.731337
378, 1.749072
377, 1.757717
376, 1.766152
375, 1.772011
374, 1.777208
373, 1.782140
372, 1.803646
371, 1.783369
370, 1.812228
369, 1.821519
368, 1.832672
367, 1.841866
366, 1.844079
365, 1.858292
364, 1.860060
363, 1.847746
362, 1.893070
361, 1.884183
360, 1.906873
359, 1.902609
358, 1.920013
357, 1.924828
356, 1.933925
355, 1.938431
354, 1.950166
353, 1.958228
352, 1.972110
351, 1.988306
350, 1.987692
349, 1.986978
348, 1.987951
347, 1.980570
346, 2.041009
345, 2.009056
344, 2.076269
343, 2.039353
342, 2.047706
341, 2.085217
340, 2.074997
339, 2.051851
338, 2.142448
337, 2.130435
336, 2.128377
335, 2.171981
334, 2.165946
333, 2.181581
332, 2.259044
331, 2.171886
330, 2.217697
329, 2.314063
328, 2.242957
327, 2.318691
326, 2.305776
325, 2.324644
324, 2.338309
323, 2.337255
322, 2.377444
321, 2.383551
320, 2.401216
319, 2.412993
318, 2.429824
317, 2.436638
316, 2.456480
315, 2.475096
314, 2.486655
313, 2.509299
312, 2.527340
311, 2.556660
310, 2.569017
309, 2.584949
308, 2.606512
307, 2.623942
306, 2.643919
305, 2.690809
304, 2.718422
303, 2.736380
302, 2.769637
301, 2.827751
300, 2.862849
299, 2.901173
298, 2.993927
297, 3.090711
296, 3.182364
295, 3.266563
294, 3.342532
293, 3.434666
292, 3.522755
291, 3.470011
290, 3.691646
289, 3.758323
288, 3.899648
287, 3.809370
286, 3.899223
285, 3.757881
284, 4.110089
283, 3.782557
282, 3.757687
281, 4.058801
280, 3.971563
279, 3.898877
278, 3.971529
277, 3.971693
276, 4.058831
275, 3.690917
274, 3.899151
273, 3.971879
272, 4.013440
271, 3.972072
270, 4.013671
269, 3.934536
268, 4.059614
267, 3.809825
266, 4.236029
265, 4.169137
264, 4.060018
263, 3.972956
262, 4.060152
261, 4.014395
260, 4.111456
259, 3.935360
258, 4.060400
257, 4.111485
256, 4.111531
255, 4.060496
254, 4.060555
253, 4.111620
252, 4.169679
251, 3.935453
250, 4.169452
249, 4.236411
248, 4.060446
247, 4.315769
246, 4.236768
245, 4.170002
244, 4.170098
243, 3.973971
242, 4.170367
241, 4.237514
240, 4.413694
239, 4.317001
238, 4.317148
237, 4.317265
236, 4.317428
235, 4.016528
234, 4.171655
233, 4.318026
232, 4.239007
231, 4.172390
230, 4.239741
229, 4.173299
228, 4.240795
227, 3.940558
226, 4.020510
225, 4.322509
224, 4.119363
223, 4.245274
222, 4.069984
221, 4.325737
220, 4.179814
219, 4.070764
218, 4.121822
217, 4.547963
216, 4.179929
215, 4.180064
214, 4.247200
213, 4.247613
212, 4.122920
211, 4.123055
210, 4.072221
209, 4.182097
208, 4.249394
207, 4.027712
206, 4.073820
205, 4.126131
204, 4.184675
203, 3.951192
202, 3.989927
201, 4.187851
200, 4.255277