File: adquisiciones/uvvis hexagonales/Ps.Sample.Raw.csv
nm, A
700, 0.864506
699, 0.865465
698, 0.866502
697, 0.867439
696, 0.868341
695, 0.869302
694, 0.870197
693, 0.871132
692, 0.872179
691, 0.873028
690, 0.874026
689, 0.874971
688, 0.875948
687, 0.876986
686, 0.877906
685, 0.878858
684, 0.879886
683, 0.881438
682, 0.882956
681, 0.883911
680, 0.885063
679, 0.886025
678, 0.887043
677, 0.888085
676, 0.889030
675, 0.889996
674, 0.891157
673, 0.892172
672, 0.893150
671, 0.894173
670, 0.895216
669, 0.896196
668, 0.897201
667, 0.898133
666, 0.899359
665, 0.900189
664, 0.901371
663, 0.902316
662, 0.903410
661, 0.904535
660, 0.905476
659, 0.906523
658, 0.907641
657, 0.908676
656, 0.909704
655, 0.910751
654, 0.911865
653, 0.912780
652, 0.913977
651, 0.914989
650, 0.916163
649, 0.917309
648, 0.918194
647, 0.919361
646, 0.920565
645, 0.921626
644, 0.922705
643, 0.923741
642, 0.924907
641, 0.926032
640, 0.927256
639, 0.928231
638, 0.929357
637, 0.930540
636, 0.931675
635, 0.932785
634, 0.933962
633, 0.935072
632, 0.936180
631, 0.937427
630, 0.938479
629, 0.939674
628, 0.940810
627, 0.942030
626, 0.943244
625, 0.944362
624, 0.945352
623, 0.946636
622, 0.947838
621, 0.948906
620, 0.950166
619, 0.951410
618, 0.952567
617, 0.953826
616, 0.954993
615, 0.956327
614, 0.957625
613, 0.958800
612, 0.959989
611, 0.961218
610, 0.962458
609, 0.963881
608, 0.965000
607, 0.966283
606, 0.967575
605, 0.968868
604, 0.970074
603, 0.971365
602, 0.972778
601, 0.974107
600, 0.975535
599, 0.976862
598, 0.978266
597, 0.979590
596, 0.980976
595, 0.982216
594, 0.983693
593, 0.985196
592, 0.986597
591, 0.988131
590, 0.989618
589, 0.991026
588, 0.992461
587, 0.993820
586, 0.995270
585, 0.996677
584, 0.998080
583, 0.999440
582, 1.000804
581, 1.002193
580, 1.003528
579, 1.004907
578, 1.006253
577, 1.007580
576, 1.008851
575, 1.010181
574, 1.011479
573, 1.012721
572, 1.013967
571, 1.015117
570, 1.016463
569, 1.017739
568, 1.018892
567, 1.019956
566, 1.021336
565, 1.022511
564, 1.023772
563, 1.024761
562, 1.026007
561, 1.027222
560, 1.028447
559, 1.029702
558, 1.031543
557, 1.033094
556, 1.034465
555, 1.035627
554, 1.037069
553, 1.038265
552, 1.039504
551, 1.040909
550, 1.042219
549, 1.043435
548, 1.044829
547, 1.046208
546, 1.047271
545, 1.048849
544, 1.050203
543, 1.051419
542, 1.052895
541, 1.054064
540, 1.055539
539, 1.056951
538, 1.058475
537, 1.059921
536, 1.061392
535, 1.062644
534, 1.064029
533, 1.065651
532, 1.067067
531, 1.068442
530, 1.069977
529, 1.071393
528, 1.072936
527, 1.074418
526, 1.075975
525, 1.077362
524, 1.078824
523, 1.080205
522, 1.081672
521, 1.083058
520, 1.084657
519, 1.086193
518, 1.087779
517, 1.089247
516, 1.090678
515, 1.092194
514, 1.093885
513, 1.095484
512, 1.097018
511, 1.098606
510, 1.100132
509, 1.101914
508, 1.103463
507, 1.104836
506, 1.106668
505, 1.108251
504, 1.110157
503, 1.111826
502, 1.113441
501, 1.115248
500, 1.116912
499, 1.118426
498, 1.120435
497, 1.122152
496, 1.124005
495, 1.125793
494, 1.127541
493, 1.129401
492, 1.131154
491, 1.132982
490, 1.134796
489, 1.136761
488, 1.138592
487, 1.140462
486, 1.142437
485, 1.144345
484, 1.146445
483, 1.148155
482, 1.150030
481, 1.152098
480, 1.154173
479, 1.156189
478, 1.158032
477, 1.159997
476, 1.162036
475, 1.163747
474, 1.165854
473, 1.167855
472, 1.169897
471, 1.171741
470, 1.173871
469, 1.175891
468, 1.177808
467, 1.179628
466, 1.181814
465, 1.183879
464, 1.185760
463, 1.187719
462, 1.189708
461, 1.191746
460, 1.193677
459, 1.195560
458, 1.197673
457, 1.200044
456, 1.201769
455, 1.203927
454, 1.206084
453, 1.208332
452, 1.210261
451, 1.212039
450, 1.214830
449, 1.216559
448, 1.218974
447, 1.221052
446, 1.223165
445, 1.225284
444, 1.227396
443, 1.229757
442, 1.231795
441, 1.234406
440, 1.236712
439, 1.239033
438, 1.241698
437, 1.244047
436, 1.246448
435, 1.249016
434, 1.251300
433, 1.254026
432, 1.256213
431, 1.258773
430, 1.261521
429, 1.264035
428, 1.266779
427, 1.268953
426, 1.272013
425, 1.274461
424, 1.277429
423, 1.279583
422, 1.282482
421, 1.281587
420, 1.284779
419, 1.287448
418, 1.290079
417, 1.292971
416, 1.295674
415, 1.298531
414, 1.301319
413, 1.304343
412, 1.307167
411, 1.309822
410, 1.312851
409, 1.316022
408, 1.319024
407, 1.322056
406, 1.324832
405, 1.327897
404, 1.331117
403, 1.333996
402, 1.337372
401, 1.340484
400, 1.343690
399, 1.346988
398, 1.350519
397, 1.353643
396, 1.356908
395, 1.360285
394, 1.363583
393, 1.367181
392, 1.370702
391, 1.373938
390, 1.377960
389, 1.381186
388, 1.384843
387, 1.388429
386, 1.392187
385, 1.396275
384, 1.400751
383, 1.413057
382, 1.417572
381, 1.424631
380, 1.427620
379, 1.415382
378, 1.426882
377, 1.432671
376, 1.433385
375, 1.435929
374, 1.441349
373, 1.442212
372, 1.446791
371, 1.448103
370, 1.456063
369, 1.461367
368, 1.470363
367, 1.472787
366, 1.473675
365, 1.479982
364, 1.485058
363, 1.481567
362, 1.495775
361, 1.501745
360, 1.506759
359, 1.507857
358, 1.516131
357, 1.520356
356, 1.526300
355, 1.519054
354, 1.531663
353, 1.539985
352, 1.539164
351, 1.544685
350, 1.559591
349, 1.558598
348, 1.562522
347, 1.549124
346, 1.575216
345, 1.583468
344, 1.590976
343, 1.588020
342, 1.597529
341, 1.602039
340, 1.605391
339, 1.604998
338, 1.630189
337, 1.639784
336, 1.645059
335, 1.639074
334, 1.671983
333, 1.652861
332, 1.664539
331, 1.651316
330, 1.666400
329, 1.672595
328, 1.696921
327, 1.711040
326, 1.724827
325, 1.731419
324, 1.740846
323, 1.743600
322, 1.753535
321, 1.761570
320, 1.768265
319, 1.776812
318, 1.784200
317, 1.790801
316, 1.803142
315, 1.808523
314, 1.817089
313, 1.826138
312, 1.836182
311, 1.843371
310, 1.851128
309, 1.863272
308, 1.871412
307, 1.881624
306, 1.893351
305, 1.904161
304, 1.917052
303, 1.930204
302, 1.943214
301, 1.957400
300, 1.974472
299, 1.993084
298, 2.016828
297, 2.043129
296, 2.072331
295, 2.103036
294, 2.129721
293, 2.176772
292, 2.208646
291, 2.245433
290, 2.297828
289, 2.330540
288, 2.369077
287, 2.414578
286, 2.458227
285, 2.505268
284, 2.565978
283, 2.623827
282, 2.729650
281, 2.860616
280, 3.026023
279, 3.264641
278, 3.614863
277, 3.734155
276, 3.808726
275, 3.550587
274, 3.712098
273, 3.782831
272, 3.899332
271, 3.734589
270, 3.782974
269, 3.758218
268, 3.691393
267, 3.735111
266, 3.691835
265, 3.783698
264, 3.900191
263, 3.868069
262, 3.934953
261, 3.838186
260, 3.973031
259, 3.810304
258, 3.935398
257, 3.868287
256, 3.810350
255, 3.935343
254, 3.900754
253, 4.014558
252, 4.014567
251, 3.784055
250, 3.935188
249, 4.060207
248, 3.900527
247, 4.111498
246, 4.111620
245, 3.973405
244, 4.060731
243, 3.973648
242, 4.060983
241, 4.170299
240, 4.061264
239, 4.170639
238, 4.061683
237, 4.171003
236, 4.113162
235, 3.974980
234, 4.062277
233, 4.238627
232, 3.975603
231, 3.975854
230, 3.938424
229, 4.018114
228, 3.872614
227, 3.843345
226, 3.906372
225, 4.066959
224, 4.022197
223, 4.068878
222, 3.982543
221, 4.070108
220, 4.024687
219, 3.794213
218, 3.983216
217, 3.983306
216, 4.024715
215, 3.945559
214, 4.179905
213, 4.025306
212, 4.071276
211, 3.879608
210, 3.947025
209, 4.123505
208, 3.913059
207, 3.985704
206, 4.073409
205, 3.949423
204, 4.126192
203, 3.950519
202, 3.951718
201, 4.129247
200, 3.828692