File: adquisiciones/uvvis hexagonales/PsNf.Sample.Raw.csv
nm, A
700, 2.327937
699, 2.328697
698, 2.330257
697, 2.330994
696, 2.332509
695, 2.334117
694, 2.333936
693, 2.335519
692, 2.336248
691, 2.336189
690, 2.338633
689, 2.340177
688, 2.340063
687, 2.342564
686, 2.343312
685, 2.344003
684, 2.345669
683, 2.345696
682, 2.348309
681, 2.348210
680, 2.349945
679, 2.351553
678, 2.352305
677, 2.353998
676, 2.353876
675, 2.352853
674, 2.355431
673, 2.356203
672, 2.358022
671, 2.357872
670, 2.359571
669, 2.360369
668, 2.362067
667, 2.360219
666, 2.362855
665, 2.363655
664, 2.364525
663, 2.365377
662, 2.367139
661, 2.366204
660, 2.368860
659, 2.366949
658, 2.369623
657, 2.370562
656, 2.370499
655, 2.372216
654, 2.372169
653, 2.373015
652, 2.374820
651, 2.375731
650, 2.375699
649, 2.378465
648, 2.378335
647, 2.378287
646, 2.380136
645, 2.381946
644, 2.382854
643, 2.381839
642, 2.382763
641, 2.384636
640, 2.385551
639, 2.385452
638, 2.386364
637, 2.388267
636, 2.388251
635, 2.388207
634, 2.390103
633, 2.391062
632, 2.391042
631, 2.393010
630, 2.394928
629, 2.394916
628, 2.395862
627, 2.393865
626, 2.395866
625, 2.397813
624, 2.397789
623, 2.398770
622, 2.400734
621, 2.401674
620, 2.402664
619, 2.401667
618, 2.402617
617, 2.404604
616, 2.405600
615, 2.405608
614, 2.407673
613, 2.407585
612, 2.410601
611, 2.408558
610, 2.410601
609, 2.410601
608, 2.412598
607, 2.413661
606, 2.414660
605, 2.414624
604, 2.415641
603, 2.414600
602, 2.416629
601, 2.417650
600, 2.417579
599, 2.419598
598, 2.420501
597, 2.420385
596, 2.422388
595, 2.422141
594, 2.422987
593, 2.424798
592, 2.425524
591, 2.427250
590, 2.427899
589, 2.428503
588, 2.430165
587, 2.428476
586, 2.431103
585, 2.432692
584, 2.433146
583, 2.433631
582, 2.434032
581, 2.433434
580, 2.435014
579, 2.434553
578, 2.436219
577, 2.436882
576, 2.437608
575, 2.438349
574, 2.439137
573, 2.438913
572, 2.440934
571, 2.437371
570, 2.442855
569, 2.442774
568, 2.443824
567, 2.444744
566, 2.444711
565, 2.444597
564, 2.446974
563, 2.444605
562, 2.447976
561, 2.449209
560, 2.448111
559, 2.450310
558, 2.449687
557, 2.448992
556, 2.450233
555, 2.449187
554, 2.451554
553, 2.453950
552, 2.454076
551, 2.455346
550, 2.455447
549, 2.454426
548, 2.456972
547, 2.457041
546, 2.457200
545, 2.458492
544, 2.459831
543, 2.459860
542, 2.462264
541, 2.459892
540, 2.463512
539, 2.462313
538, 2.463532
537, 2.464718
536, 2.467115
535, 2.465915
534, 2.467079
533, 2.467099
532, 2.468335
531, 2.468286
530, 2.469493
529, 2.471828
528, 2.471933
527, 2.471877
526, 2.474350
525, 2.474237
524, 2.474387
523, 2.474354
522, 2.475566
521, 2.477962
520, 2.478084
519, 2.479261
518, 2.481715
517, 2.481690
516, 2.481723
515, 2.481686
514, 2.484186
513, 2.485409
512, 2.485373
511, 2.486627
510, 2.486623
509, 2.487910
508, 2.487865
507, 2.487898
506, 2.489168
505, 2.491650
504, 2.491626
503, 2.492931
502, 2.494232
501, 2.494244
500, 2.496751
499, 2.494183
498, 2.498031
497, 2.498031
496, 2.499277
495, 2.500617
494, 2.501859
493, 2.503101
492, 2.503101
491, 2.503113
490, 2.503105
489, 2.508274
488, 2.508266
487, 2.508177
486, 2.510752
485, 2.510683
484, 2.510683
483, 2.510569
482, 2.513079
481, 2.515618
480, 2.515553
479, 2.518091
478, 2.517949
477, 2.519027
476, 2.521582
475, 2.519987
474, 2.523836
473, 2.524927
472, 2.523318
471, 2.527148
470, 2.525597
469, 2.526728
468, 2.527871
467, 2.526278
466, 2.530187
465, 2.532603
464, 2.532414
463, 2.533567
462, 2.534679
461, 2.535960
460, 2.535779
459, 2.535541
458, 2.536739
457, 2.542336
456, 2.542102
455, 2.543398
454, 2.544620
453, 2.545991
452, 2.545785
451, 2.542735
450, 2.547099
449, 2.551108
448, 2.550798
447, 2.550546
446, 2.553123
445, 2.554297
444, 2.558369
443, 2.552047
442, 2.556070
441, 2.563298
440, 2.562962
439, 2.567060
438, 2.569765
437, 2.570968
436, 2.567639
435, 2.567331
434, 2.568486
433, 2.574524
432, 2.569704
431, 2.578873
430, 2.578806
429, 2.580382
428, 2.581792
427, 2.573885
426, 2.586554
425, 2.591282
424, 2.589619
423, 2.589628
422, 2.597779
421, 2.601174
420, 2.601153
419, 2.602826
418, 2.607832
417, 2.609640
416, 2.613043
415, 2.614801
414, 2.618295
413, 2.618379
412, 2.623655
411, 2.621917
410, 2.625379
409, 2.632737
408, 2.636216
407, 2.638176
406, 2.639955
405, 2.643582
404, 2.649235
403, 2.647467
402, 2.653187
401, 2.658877
400, 2.662695
399, 2.666614
398, 2.668545
397, 2.670426
396, 2.676380
395, 2.672470
394, 2.680336
393, 2.688428
392, 2.692530
391, 2.696553
390, 2.698586
389, 2.700700
388, 2.708994
387, 2.706881
386, 2.715439
385, 2.717662
384, 2.708121
383, 2.654380
382, 2.810768
381, 2.657737
380, 2.747399
379, 2.580342
378, 2.683826
377, 2.614447
376, 2.671590
375, 2.626261
374, 2.625948
373, 2.709441
372, 2.645915
371, 2.518581
370, 2.708952
369, 2.664521
368, 2.733481
367, 2.685696
366, 2.737498
365, 2.670187
364, 2.691999
363, 2.619902
362, 2.744548
361, 2.790850
360, 2.728429
359, 2.801408
358, 2.630486
357, 2.717047
356, 2.788231
355, 2.611150
354, 2.663353
353, 2.710159
352, 2.718896
351, 2.694949
350, 2.731744
349, 2.818608
348, 2.719689
347, 2.628305
346, 2.765626
345, 2.716556
344, 2.854546
343, 2.774365
342, 2.839149
341, 2.922405
340, 2.591293
339, 2.607565
338, 2.805019
337, 3.029134
336, 3.066999
335, 3.377780
334, 2.993407
333, 2.852243
332, 3.140877
331, 2.692139
330, 2.717946
329, 2.882949
328, 3.071480
327, 3.174738
326, 3.236042
325, 3.351284
324, 3.457777
323, 3.370593
322, 3.599110
321, 3.457878
320, 3.652297
319, 3.566946
318, 3.691919
317, 3.633826
316, 3.551597
315, 3.522907
314, 3.583006
313, 3.672081
312, 3.759311
311, 3.784063
310, 3.583224
309, 3.599669
308, 3.634528
307, 3.634633
306, 3.672488
305, 3.653359
304, 3.617063
303, 3.600164
302, 3.736342
301, 3.672644
300, 3.617135
299, 3.617160
298, 3.634876
297, 3.583505
296, 3.736082
295, 3.713696
294, 3.652789
293, 3.634150
292, 3.691927
291, 3.599098
290, 3.615891
289, 3.712557
288, 3.582152
287, 3.734615
286, 3.712292
285, 3.651396
284, 3.690917
283, 3.535872
282, 3.565793
281, 3.597931
280, 3.597822
279, 3.597855
278, 3.550405
277, 3.651181
276, 3.565688
275, 3.468917
274, 3.565970
273, 3.651552
272, 3.633064
271, 3.536222
270, 3.691204
269, 3.671068
268, 3.651885
267, 3.522503
266, 3.671631
265, 3.652419
264, 3.810014
263, 3.671774
262, 3.810014
261, 3.713247
260, 3.692205
259, 3.713394
258, 3.692360
257, 3.838324
256, 3.784021
255, 3.759252
254, 3.735943
253, 3.838467
252, 3.759294
251, 3.713474
250, 3.735616
249, 3.868321
248, 3.810350
247, 3.868460
246, 3.759437
245, 3.810678
244, 3.868846
243, 3.692822
242, 3.839134
241, 3.901454
240, 3.811386
239, 3.936556
238, 3.901982
237, 3.869973
236, 3.840160
235, 3.737619
234, 3.902576
233, 3.937597
232, 3.903052
231, 3.813126
230, 3.813485
229, 3.813994
228, 3.939561
227, 3.815316
226, 3.874188
225, 3.907258
224, 3.876069
223, 3.876993
222, 3.944754
221, 3.982958
220, 3.820567
219, 3.820542
218, 3.878481
217, 3.945518
216, 3.910772
215, 3.945559
214, 3.945821
213, 3.983913
212, 4.025519
211, 3.946555
210, 3.850115
209, 4.026595
208, 3.913059
207, 3.913153
206, 3.881523
205, 3.914660
204, 3.853191
203, 3.750947
202, 3.800450
201, 3.953155
200, 3.886684