File: adquisiciones/uvvis hexagonales/pvt cef3.Sample.Cycle1.Raw.csv
nm, A
700, 1.301736
699, 1.303155
698, 1.304540
697, 1.306101
696, 1.307442
695, 1.308954
694, 1.310214
693, 1.311626
692, 1.313197
691, 1.314513
690, 1.315937
689, 1.317475
688, 1.320063
687, 1.321457
686, 1.322991
685, 1.324388
684, 1.325977
683, 1.328428
682, 1.331022
681, 1.333800
680, 1.335563
679, 1.336942
678, 1.338264
677, 1.339643
676, 1.341333
675, 1.342758
674, 1.344228
673, 1.345676
672, 1.347364
671, 1.348708
670, 1.350104
669, 1.351768
668, 1.352987
667, 1.354556
666, 1.356079
665, 1.357495
664, 1.359254
663, 1.360639
662, 1.362289
661, 1.363640
660, 1.365455
659, 1.366765
658, 1.368329
657, 1.369913
656, 1.371521
655, 1.373056
654, 1.374505
653, 1.376202
652, 1.377548
651, 1.379128
650, 1.381091
649, 1.382648
648, 1.384145
647, 1.385731
646, 1.387419
645, 1.388873
644, 1.390477
643, 1.392076
642, 1.393709
641, 1.395533
640, 1.397065
639, 1.398551
638, 1.400190
637, 1.401755
636, 1.403342
635, 1.404907
634, 1.406677
633, 1.408283
632, 1.409789
631, 1.411434
630, 1.413026
629, 1.414660
628, 1.416376
627, 1.418007
626, 1.419704
625, 1.421553
624, 1.423103
623, 1.424882
622, 1.426546
621, 1.428185
620, 1.429878
619, 1.431487
618, 1.433153
617, 1.434855
616, 1.436792
615, 1.438431
614, 1.440107
613, 1.441993
612, 1.443604
611, 1.445367
610, 1.447146
609, 1.449152
608, 1.450778
607, 1.452724
606, 1.454498
605, 1.456502
604, 1.458079
603, 1.460243
602, 1.461926
601, 1.464217
600, 1.466232
599, 1.468265
598, 1.470347
597, 1.472586
596, 1.474976
595, 1.476871
594, 1.479536
593, 1.482004
592, 1.484579
591, 1.487228
590, 1.489759
589, 1.492386
588, 1.495140
587, 1.497542
586, 1.500094
585, 1.502953
584, 1.504756
583, 1.507117
582, 1.509283
581, 1.511170
580, 1.513183
579, 1.514307
578, 1.516155
577, 1.518246
576, 1.519874
575, 1.521253
574, 1.523091
573, 1.524636
572, 1.526325
571, 1.527634
570, 1.529566
569, 1.531283
568, 1.532869
567, 1.534605
566, 1.536535
565, 1.538250
564, 1.540044
563, 1.541657
562, 1.543456
561, 1.545115
560, 1.547031
559, 1.548952
558, 1.546597
557, 1.546618
556, 1.548437
555, 1.550271
554, 1.552370
553, 1.554202
552, 1.556083
551, 1.558248
550, 1.559824
549, 1.562035
548, 1.563894
547, 1.565754
546, 1.567560
545, 1.569793
544, 1.571777
543, 1.573627
542, 1.576125
541, 1.578094
540, 1.580344
539, 1.582336
538, 1.584867
537, 1.586747
536, 1.589129
535, 1.591329
534, 1.593527
533, 1.595782
532, 1.597751
531, 1.599797
530, 1.602239
529, 1.604617
528, 1.606851
527, 1.609263
526, 1.611641
525, 1.613523
524, 1.615846
523, 1.618166
522, 1.620870
521, 1.623213
520, 1.625385
519, 1.627572
518, 1.629989
517, 1.632568
516, 1.635046
515, 1.636940
514, 1.639442
513, 1.642087
512, 1.644371
511, 1.646716
510, 1.649237
509, 1.651819
508, 1.653964
507, 1.656197
506, 1.658799
505, 1.661554
504, 1.663770
503, 1.666065
502, 1.668932
501, 1.671603
500, 1.674054
499, 1.676331
498, 1.678874
497, 1.681400
496, 1.683907
495, 1.686519
494, 1.689442
493, 1.691782
492, 1.694585
491, 1.696611
490, 1.700047
489, 1.702872
488, 1.705327
487, 1.708131
486, 1.710785
485, 1.713437
484, 1.716597
483, 1.718815
482, 1.721457
481, 1.724776
480, 1.727306
479, 1.730220
478, 1.733147
477, 1.735531
476, 1.738721
475, 1.740937
474, 1.744099
473, 1.747003
472, 1.749729
471, 1.752447
470, 1.755047
469, 1.757603
468, 1.760656
467, 1.762566
466, 1.765660
465, 1.768405
464, 1.771110
463, 1.774021
462, 1.776419
461, 1.779244
460, 1.782037
459, 1.784042
458, 1.787089
457, 1.790022
456, 1.792585
455, 1.794748
454, 1.797619
453, 1.800396
452, 1.802798
451, 1.804732
450, 1.808192
449, 1.811012
448, 1.813112
447, 1.816634
446, 1.819255
445, 1.822233
444, 1.824868
443, 1.826992
442, 1.830473
441, 1.833556
440, 1.836343
439, 1.839869
438, 1.842670
437, 1.844940
436, 1.848508
435, 1.850558
434, 1.854329
433, 1.856536
432, 1.860313
431, 1.862809
430, 1.865187
429, 1.868559
428, 1.871475
427, 1.873662
426, 1.877372
425, 1.880078
424, 1.883231
423, 1.886127
422, 1.889624
421, 1.892622
420, 1.889995
419, 1.892601
418, 1.896156
417, 1.899573
416, 1.902889
415, 1.905949
414, 1.909364
413, 1.912515
412, 1.915637
411, 1.918765
410, 1.921843
409, 1.925238
408, 1.929356
407, 1.932713
406, 1.935545
405, 1.939126
404, 1.942140
403, 1.945169
402, 1.949729
401, 1.953103
400, 1.956862
399, 1.960338
398, 1.964540
397, 1.968337
396, 1.972677
395, 1.974287
394, 1.980965
393, 1.984996
392, 1.989055
391, 1.993447
390, 1.997948
389, 2.003833
388, 2.008742
387, 2.012190
386, 2.018210
385, 2.025733
384, 2.010430
383, 2.081849
382, 2.159346
381, 2.094153
380, 2.102261
379, 2.053362
378, 2.087841
377, 2.072592
376, 2.087503
375, 2.120119
374, 2.106259
373, 2.118761
372, 2.103699
371, 2.093647
370, 2.112274
369, 2.137607
368, 2.161264
367, 2.138738
366, 2.147020
365, 2.147309
364, 2.163801
363, 2.155164
362, 2.167585
361, 2.190734
360, 2.192105
359, 2.212112
358, 2.215376
357, 2.187240
356, 2.201870
355, 2.187324
354, 2.195992
353, 2.243923
352, 2.261213
351, 2.230478
350, 2.221255
349, 2.263229
348, 2.315185
347, 2.215260
346, 2.294268
345, 2.303951
344, 2.296071
343, 2.344958
342, 2.378867
341, 2.324781
340, 2.395299
339, 2.311716
338, 2.413055
337, 2.461177
336, 2.502279
335, 2.432610
334, 2.516285
333, 2.479126
332, 2.468530
331, 2.385920
330, 2.543335
329, 2.510367
328, 2.523861
327, 2.561801
326, 2.554800
325, 2.582678
324, 2.600780
323, 2.590800
322, 2.633872
321, 2.639432
320, 2.665720
319, 2.679651
318, 2.706642
317, 2.724003
316, 2.761142
315, 2.744756
314, 2.786483
313, 2.810384
312, 2.841397
311, 2.862224
310, 2.900644
309, 2.928282
308, 2.950281
307, 2.969521
306, 3.023685
305, 3.060845
304, 3.134190
303, 3.176288
302, 3.244244
301, 3.316096
300, 3.435291
299, 3.402316
298, 3.617147
297, 3.672446
296, 3.759563
295, 3.810606
294, 3.735763
293, 3.759088
292, 4.059904
291, 3.783622
290, 3.972438
289, 3.972194
288, 4.110426
287, 4.712338
286, 5.013322
285, 4.058881
284, 4.314166
283, 3.899050
282, 4.109861
281, 4.313935
280, 4.535674
279, 4.535708
278, 4.058561
277, 4.313939
276, 4.535724
275, 3.866857
274, 3.971735
273, 4.712250
272, 4.411216
271, 4.411283
270, 4.168325
269, 4.314520
268, 4.536491
267, 3.899921
266, 4.411994
265, 4.169049
264, 4.713104
263, 4.315227
262, 4.169036
261, 4.315307
260, 4.537303
259, 4.060181
258, 4.713549
257, 4.713386
256, 4.412410
255, 5.014525
254, 5.014697
253, 4.236407
252, 4.412507
251, 4.315534
250, 4.412309
249, 4.537328
248, 4.412410
247, 4.412528
246, 4.537588
245, 4.315828
244, 4.713944
243, 4.060799
242, 4.538104
241, 5.015397
240, 4.714476
239, 4.538616
238, 4.714895
237, 4.414041
236, 4.715222
235, 4.414313
234, 4.715489
233, 4.539657
232, 4.715966
231, 4.716216
230, 5.017605
229, 5.018114
228, 4.717712
227, 4.417376
226, 4.117226
225, 4.720172
224, 4.420137
223, 4.722091
222, 10
221, 4.547229
220, 4.325717
219, 4.121572
218, 4.547488
217, 5.024699
216, 4.422655
215, 5.024740
214, 4.547881
213, 10
212, 4.423459
211, 4.071493
210, 5.026206
209, 4.549473
208, 4.725973
207, 4.549975
206, 4.726621
205, 5.028604
204, 4.330312
203, 4.126610
202, 4.428839
201, 4.254185
200, 4.430752