File: adquisiciones/uvvis hexagonales/Pvt .Sample.Raw.csv
nm, A
700, 1.106105
699, 1.107584
698, 1.109080
697, 1.110492
696, 1.111944
695, 1.113438
694, 1.114788
693, 1.116261
692, 1.117681
691, 1.119170
690, 1.120656
689, 1.122094
688, 1.123544
687, 1.125028
686, 1.126433
685, 1.127996
684, 1.129561
683, 1.132728
682, 1.136525
681, 1.138154
680, 1.139593
679, 1.141394
678, 1.142625
677, 1.144296
676, 1.145604
675, 1.147071
674, 1.148583
673, 1.150018
672, 1.151660
671, 1.153134
670, 1.154493
669, 1.156079
668, 1.157550
667, 1.158878
666, 1.160559
665, 1.161937
664, 1.163560
663, 1.164996
662, 1.166483
661, 1.168093
660, 1.169502
659, 1.171014
658, 1.172446
657, 1.174107
656, 1.175700
655, 1.177042
654, 1.178662
653, 1.180250
652, 1.181743
651, 1.183221
650, 1.184822
649, 1.186276
648, 1.187911
647, 1.189515
646, 1.191002
645, 1.192570
644, 1.193944
643, 1.195622
642, 1.197022
641, 1.198603
640, 1.200249
639, 1.201724
638, 1.203189
637, 1.204870
636, 1.206510
635, 1.208064
634, 1.209555
633, 1.211084
632, 1.212744
631, 1.214378
630, 1.215892
629, 1.217645
628, 1.219048
627, 1.220534
626, 1.222349
625, 1.224108
624, 1.225549
623, 1.227275
622, 1.228857
621, 1.230481
620, 1.232159
619, 1.233791
618, 1.235374
617, 1.237197
616, 1.238902
615, 1.240702
614, 1.242195
613, 1.244053
612, 1.245548
611, 1.247365
610, 1.249056
609, 1.250821
608, 1.252612
607, 1.254356
606, 1.256398
605, 1.258085
604, 1.259944
603, 1.261673
602, 1.263815
601, 1.265845
600, 1.267756
599, 1.269758
598, 1.271913
597, 1.274108
596, 1.276560
595, 1.278953
594, 1.281324
593, 1.284075
592, 1.286662
591, 1.289666
590, 1.292524
589, 1.295122
588, 1.297959
587, 1.300457
586, 1.302900
585, 1.305392
584, 1.307608
583, 1.309541
582, 1.311237
581, 1.313210
580, 1.314674
579, 1.316139
578, 1.317614
577, 1.319111
576, 1.320507
575, 1.322008
574, 1.323304
573, 1.324798
572, 1.326212
571, 1.327483
570, 1.329173
569, 1.330748
568, 1.332418
567, 1.333784
566, 1.335516
565, 1.336996
564, 1.338783
563, 1.340300
562, 1.342129
561, 1.343834
560, 1.345961
559, 1.347951
558, 1.342962
557, 1.341710
556, 1.343508
555, 1.345230
554, 1.346835
553, 1.348644
552, 1.350409
551, 1.352256
550, 1.353917
549, 1.355805
548, 1.357508
547, 1.359061
546, 1.360989
545, 1.362985
544, 1.364939
543, 1.366759
542, 1.368899
541, 1.370873
540, 1.372782
539, 1.374874
538, 1.376747
537, 1.378785
536, 1.380755
535, 1.382894
534, 1.384736
533, 1.386828
532, 1.388756
531, 1.390998
530, 1.393012
529, 1.394858
528, 1.397085
527, 1.398854
526, 1.401056
525, 1.402683
524, 1.405096
523, 1.406924
522, 1.409000
521, 1.410946
520, 1.413269
519, 1.415225
518, 1.417235
517, 1.419337
516, 1.421399
515, 1.423295
514, 1.425483
513, 1.427852
512, 1.429776
511, 1.431977
510, 1.434173
509, 1.436092
508, 1.438380
507, 1.440310
506, 1.442348
505, 1.444573
504, 1.446700
503, 1.449135
502, 1.451116
501, 1.453542
500, 1.455706
499, 1.457652
498, 1.460136
497, 1.462366
496, 1.464574
495, 1.466884
494, 1.468985
493, 1.471452
492, 1.473621
491, 1.476055
490, 1.478483
489, 1.481023
488, 1.483479
487, 1.485868
486, 1.488186
485, 1.490623
484, 1.493017
483, 1.495311
482, 1.497858
481, 1.500433
480, 1.503078
479, 1.505410
478, 1.508010
477, 1.510242
476, 1.512743
475, 1.514892
474, 1.517350
473, 1.520173
472, 1.522638
471, 1.524682
470, 1.526831
469, 1.529485
468, 1.531471
467, 1.533484
466, 1.535633
465, 1.538508
464, 1.540306
463, 1.542341
462, 1.544056
461, 1.546377
460, 1.548368
459, 1.550021
458, 1.552586
457, 1.554399
456, 1.556529
455, 1.558319
454, 1.560040
453, 1.562215
452, 1.563967
451, 1.566072
450, 1.568536
449, 1.570613
448, 1.572612
447, 1.574835
446, 1.576957
445, 1.578998
444, 1.581435
443, 1.582802
442, 1.585714
441, 1.587979
440, 1.589899
439, 1.592172
438, 1.594571
437, 1.596029
436, 1.598263
435, 1.599776
434, 1.602219
433, 1.604376
432, 1.606591
431, 1.608723
430, 1.610187
429, 1.612909
428, 1.614788
427, 1.615827
426, 1.618366
425, 1.620663
424, 1.621854
423, 1.624146
422, 1.626383
421, 1.622221
420, 1.624838
419, 1.626252
418, 1.628682
417, 1.630753
416, 1.632528
415, 1.634906
414, 1.636929
413, 1.638466
412, 1.640689
411, 1.642354
410, 1.644693
409, 1.647151
408, 1.648699
407, 1.651086
406, 1.652920
405, 1.654766
404, 1.656945
403, 1.658177
402, 1.660965
401, 1.663088
400, 1.664814
399, 1.666808
398, 1.669129
397, 1.670621
396, 1.673022
395, 1.674439
394, 1.676549
393, 1.678551
392, 1.680753
391, 1.682245
390, 1.684817
389, 1.686256
388, 1.688723
387, 1.690175
386, 1.692599
385, 1.694503
384, 1.729949
383, 1.739745
382, 1.776253
381, 1.737296
380, 1.756553
379, 1.728058
378, 1.730926
377, 1.731560
376, 1.739189
375, 1.738214
374, 1.732678
373, 1.753065
372, 1.738458
371, 1.728642
370, 1.736553
369, 1.746490
368, 1.748907
367, 1.748468
366, 1.746739
365, 1.761992
364, 1.755971
363, 1.747289
362, 1.760635
361, 1.778867
360, 1.766788
359, 1.767543
358, 1.765185
357, 1.768172
356, 1.777069
355, 1.764346
354, 1.776487
353, 1.785829
352, 1.797551
351, 1.791340
350, 1.799672
349, 1.804993
348, 1.800372
347, 1.779900
346, 1.783918
345, 1.809644
344, 1.811239
343, 1.816788
342, 1.812032
341, 1.818073
340, 1.828264
339, 1.814510
338, 1.853784
337, 1.833581
336, 1.885675
335, 1.864191
334, 1.847875
333, 1.862003
332, 1.898175
331, 1.837016
330, 1.870009
329, 1.868918
328, 1.893728
327, 1.908077
326, 1.923935
325, 1.930181
324, 1.938532
323, 1.938499
322, 1.947758
321, 1.956134
320, 1.965195
319, 1.974294
318, 1.979109
317, 1.991609
316, 1.999895
315, 2.004393
314, 2.018296
313, 2.031329
312, 2.044702
311, 2.054994
310, 2.068135
309, 2.086246
308, 2.099339
307, 2.119974
306, 2.138693
305, 2.171232
304, 2.202090
303, 2.243550
302, 2.301605
301, 2.374585
300, 2.475999
299, 2.578937
298, 2.705457
297, 2.800025
296, 2.832992
295, 2.813329
294, 2.797032
293, 2.841175
292, 2.949689
291, 3.027299
290, 3.181322
289, 3.289311
288, 3.400732
287, 3.481889
286, 3.712292
285, 3.971731
284, 3.837045
283, 3.690774
282, 3.899008
281, 4.012905
280, 3.971402
279, 4.012829
278, 4.058561
277, 3.782460
276, 3.933664
275, 3.734231
274, 4.058886
273, 3.934098
272, 4.013276
271, 4.013343
270, 4.013423
269, 4.168392
268, 4.059370
267, 3.783416
266, 3.900111
265, 3.972754
264, 3.900191
263, 4.236046
262, 4.111044
261, 4.111187
260, 4.060181
259, 3.935243
258, 3.935398
257, 4.111326
256, 4.060228
255, 4.169427
254, 4.169599
253, 4.169460
252, 4.111477
251, 4.014504
250, 4.111279
249, 4.169351
248, 4.111380
247, 4.236436
246, 4.169611
245, 4.236646
244, 4.169876
243, 4.015041
242, 4.170128
241, 4.316427
240, 4.112416
239, 4.413677
238, 4.316955
237, 4.317131
236, 4.317282
235, 4.062131
234, 4.171421
233, 4.238627
232, 4.318026
231, 4.172148
230, 4.172507
229, 4.115024
228, 4.319772
227, 3.978043
226, 4.175218
225, 4.066959
224, 4.119107
223, 4.244969
222, 4.245784
221, 4.070108
220, 4.422627
219, 4.121572
218, 4.179511
217, 4.179601
216, 4.325745
215, 4.246589
214, 4.121913
213, 4.247155
212, 4.247368
211, 4.025736
210, 4.424146
209, 4.072352
208, 4.248852
207, 4.549975
206, 4.249500
205, 4.250453
204, 4.251131
203, 4.075458
202, 4.729869
201, 10
200, 4.254661