File: adquisiciones/uvvis hexagonales/pvtcef3.Sample.Cycle1.Raw.csv
nm, A
700, 1.078352
699, 1.079593
698, 1.080705
697, 1.081973
696, 1.083085
695, 1.084287
694, 1.085346
693, 1.086620
692, 1.087650
691, 1.088986
690, 1.090123
689, 1.091354
688, 1.092649
687, 1.093829
686, 1.094982
685, 1.096177
684, 1.097479
683, 1.099827
682, 1.102447
681, 1.104746
680, 1.105876
679, 1.107027
678, 1.108255
677, 1.109640
676, 1.110635
675, 1.111773
674, 1.113262
673, 1.114369
672, 1.115729
671, 1.116920
670, 1.117954
669, 1.119248
668, 1.120538
667, 1.121807
666, 1.123080
665, 1.124230
664, 1.125608
663, 1.126707
662, 1.127956
661, 1.129375
660, 1.130440
659, 1.131710
658, 1.132901
657, 1.134311
656, 1.135597
655, 1.136807
654, 1.138062
653, 1.139228
652, 1.140580
651, 1.141812
650, 1.143099
649, 1.144414
648, 1.145610
647, 1.147060
646, 1.148236
645, 1.149536
644, 1.150832
643, 1.152064
642, 1.153215
641, 1.154697
640, 1.155896
639, 1.157104
638, 1.158535
637, 1.159704
636, 1.161065
635, 1.162402
634, 1.163509
633, 1.164882
632, 1.166140
631, 1.167549
630, 1.168904
629, 1.170182
628, 1.171494
627, 1.172705
626, 1.174274
625, 1.175489
624, 1.176893
623, 1.178375
622, 1.179545
621, 1.180807
620, 1.182242
619, 1.183637
618, 1.184920
617, 1.186357
616, 1.187811
615, 1.189166
614, 1.190620
613, 1.192074
612, 1.193457
611, 1.194819
610, 1.196443
609, 1.197943
608, 1.199397
607, 1.201007
606, 1.202491
605, 1.204168
604, 1.205743
603, 1.207268
602, 1.209024
601, 1.210812
600, 1.212551
599, 1.214371
598, 1.216184
597, 1.218101
596, 1.220046
595, 1.222115
594, 1.224237
593, 1.226543
592, 1.228766
591, 1.231004
590, 1.233378
589, 1.235516
588, 1.237925
587, 1.240090
586, 1.242206
585, 1.244366
584, 1.246136
583, 1.247875
582, 1.249542
581, 1.251100
580, 1.252649
579, 1.253856
578, 1.255427
577, 1.256811
576, 1.258189
575, 1.259513
574, 1.260962
573, 1.262375
572, 1.263943
571, 1.265018
570, 1.266689
569, 1.268042
568, 1.269400
567, 1.270932
566, 1.272120
565, 1.273767
564, 1.275479
563, 1.276700
562, 1.278272
561, 1.279911
560, 1.281753
559, 1.283377
558, 1.280155
557, 1.279831
556, 1.281246
555, 1.282908
554, 1.284464
553, 1.286200
552, 1.287903
551, 1.289595
550, 1.291365
549, 1.293098
548, 1.294762
547, 1.296276
546, 1.297965
545, 1.299870
544, 1.301745
543, 1.303649
542, 1.305506
541, 1.307291
540, 1.309366
539, 1.311087
538, 1.313126
537, 1.315138
536, 1.317095
535, 1.318940
534, 1.320951
533, 1.323016
532, 1.324943
531, 1.326871
530, 1.328783
529, 1.330800
528, 1.332909
527, 1.334779
526, 1.336950
525, 1.338781
524, 1.341061
523, 1.342812
522, 1.345052
521, 1.346996
520, 1.349380
519, 1.351335
518, 1.353528
517, 1.355431
516, 1.357677
515, 1.359772
514, 1.362040
513, 1.364271
512, 1.366400
511, 1.368777
510, 1.370865
509, 1.373104
508, 1.375268
507, 1.377328
506, 1.379676
505, 1.381988
504, 1.384317
503, 1.386234
502, 1.388846
501, 1.391348
500, 1.393419
499, 1.395807
498, 1.398269
497, 1.400712
496, 1.402931
495, 1.405458
494, 1.407898
493, 1.410347
492, 1.412860
491, 1.415188
490, 1.417828
489, 1.420672
488, 1.423238
487, 1.425846
486, 1.428293
485, 1.430844
484, 1.433591
483, 1.436241
482, 1.439004
481, 1.441798
480, 1.444552
479, 1.447256
478, 1.449855
477, 1.452580
476, 1.455332
475, 1.457650
474, 1.460600
473, 1.463280
472, 1.466246
471, 1.468727
470, 1.471199
469, 1.474112
468, 1.476566
467, 1.478683
466, 1.481664
465, 1.484034
464, 1.486601
463, 1.488876
462, 1.491756
461, 1.494183
460, 1.496700
459, 1.498658
458, 1.501564
457, 1.504476
456, 1.506877
455, 1.509123
454, 1.511571
453, 1.514448
452, 1.517078
451, 1.519360
450, 1.522397
449, 1.525608
448, 1.527240
447, 1.530476
446, 1.532779
445, 1.536153
444, 1.539038
443, 1.541395
442, 1.544147
441, 1.547786
440, 1.550538
439, 1.553612
438, 1.556223
437, 1.559186
436, 1.562891
435, 1.565027
434, 1.567868
433, 1.571244
432, 1.574226
431, 1.577133
430, 1.580076
429, 1.583255
428, 1.585480
427, 1.588230
426, 1.592405
425, 1.594560
424, 1.597829
423, 1.600665
422, 1.603956
421, 1.607738
420, 1.604170
419, 1.607039
418, 1.610555
417, 1.613919
416, 1.617183
415, 1.620177
414, 1.623714
413, 1.626798
412, 1.630032
411, 1.633272
410, 1.636465
409, 1.640341
408, 1.643515
407, 1.646987
406, 1.650296
405, 1.653823
404, 1.657134
403, 1.660274
402, 1.664231
401, 1.667534
400, 1.671234
399, 1.675032
398, 1.678194
397, 1.682526
396, 1.686005
395, 1.688890
394, 1.693131
393, 1.696869
392, 1.700842
391, 1.704522
390, 1.708085
389, 1.712395
388, 1.716112
387, 1.719407
386, 1.723992
385, 1.727819
384, 1.749173
383, 1.780068
382, 1.791113
381, 1.779166
380, 1.773728
379, 1.765240
378, 1.764216
377, 1.780024
376, 1.782920
375, 1.797088
374, 1.799399
373, 1.790595
372, 1.799763
371, 1.793915
370, 1.793992
369, 1.824415
368, 1.827573
367, 1.823821
366, 1.830710
365, 1.833840
364, 1.838745
363, 1.827735
362, 1.845249
361, 1.863260
360, 1.852176
359, 1.872301
358, 1.867182
357, 1.872261
356, 1.895873
355, 1.870788
354, 1.886814
353, 1.904584
352, 1.908690
351, 1.925897
350, 1.921974
349, 1.932441
348, 1.951197
347, 1.929692
346, 1.950266
345, 1.965557
344, 1.958679
343, 1.986287
342, 2.002035
341, 2.007129
340, 1.995470
339, 2.023914
338, 2.044297
337, 2.047146
336, 2.051011
335, 2.080300
334, 2.082556
333, 2.119068
332, 2.108106
331, 2.047833
330, 2.107112
329, 2.135572
328, 2.157910
327, 2.167869
326, 2.174715
325, 2.178351
324, 2.195194
323, 2.204486
322, 2.219595
321, 2.236029
320, 2.246869
319, 2.262056
318, 2.271413
317, 2.292227
316, 2.308131
315, 2.318787
314, 2.331322
313, 2.356492
312, 2.378096
311, 2.393336
310, 2.417991
309, 2.434859
308, 2.460856
307, 2.470776
306, 2.508406
305, 2.539416
304, 2.583640
303, 2.613737
302, 2.670703
301, 2.725032
300, 2.792358
299, 2.875221
298, 2.954389
297, 3.037145
296, 3.085417
295, 3.095648
294, 3.133703
293, 3.145129
292, 3.265959
291, 3.273708
290, 3.422767
289, 3.598614
288, 3.691296
287, 3.809248
286, 4.013322
285, 4.168026
284, 4.110047
283, 3.808873
282, 4.234800
281, 4.167807
280, 3.898852
279, 4.012829
278, 4.313833
277, 4.012909
276, 4.167748
275, 3.690765
274, 4.013128
273, 4.168182
272, 4.168177
271, 4.712313
270, 4.110333
269, 4.168392
268, 4.536491
267, 3.867737
266, 4.235903
265, 4.537025
264, 4.412074
263, 4.169099
262, 4.235983
261, 4.315307
260, 4.236273
259, 4.060181
258, 4.111489
257, 4.537294
256, 4.236319
255, 4.169427
254, 4.169599
253, 4.315588
252, 4.236415
251, 3.973111
250, 4.236218
249, 4.315479
248, 4.236319
247, 4.412528
246, 4.537588
245, 4.169700
244, 4.537853
243, 3.973648
242, 4.413166
241, 4.413337
240, 4.316536
239, 4.413677
238, 4.714895
237, 4.538980
236, 4.238100
235, 4.171275
234, 4.539398
233, 4.414719
232, 4.318026
231, 4.318276
230, 4.239454
229, 4.319144
228, 4.541621
227, 4.019436
226, 4.242164
225, 4.544080
224, 4.323227
223, 10
222, 4.245784
221, 4.325380
220, 4.325717
219, 4.121572
218, 4.422549
217, 4.325729
216, 4.325745
215, 4.422680
214, 4.547881
213, 4.548185
212, 4.423459
211, 4.247585
210, 4.327236
209, 4.549473
208, 4.549882
207, 4.328127
206, 4.328681
205, 4.250453
204, 4.184184
203, 4.075458
202, 4.076657
201, 4.555215
200, 4.254661